"","trial","val_basic","delay","val_prc","response","RT","respSide","sideNOW","Version","loopID","Context"
"1",1,20,122,1.9,1,2.8579,2,1,"S1",1,1
"2",2,20,32,2.25,0,4.2243,1,1,"S1",1,1
"3",3,20,7,2.25,1,2.7171,1,2,"S1",1,1
"4",4,20,3,2.05,1,1.4399,1,2,"S1",1,1
"5",5,20,58,3.05,1,2.4916,1,2,"S1",1,1
"6",6,20,1,1.55,1,2.2111,2,1,"S1",1,1
"7",7,20,24,2.55,1,1.4692,2,1,"S1",1,1
"8",8,20,24,2.05,1,1.9462,1,2,"S1",1,1
"9",9,20,32,1.05,0,1.6433,2,2,"S1",1,1
"10",10,20,75,1.05,0,2.3052,1,1,"S1",1,1
"11",11,20,1,1.15,0,3.364,1,1,"S1",1,1
"12",12,20,58,1.55,0,1.7617,1,1,"S1",1,1
"13",13,20,24,3.05,1,2.467,1,2,"S1",1,1
"14",14,20,58,2.25,0,3.271,1,1,"S1",1,1
"15",15,20,45,1.65,0,2.199,1,1,"S1",1,1
"16",16,20,32,3.85,1,2.2384,2,1,"S1",1,1
"17",17,20,3,1.25,1,2.9692,2,1,"S1",1,1
"18",18,20,24,3.85,1,2.766,1,2,"S1",1,1
"19",19,20,7,1.25,0,3.2652,2,2,"S1",1,1
"20",20,20,32,1.9,1,3.8681,2,1,"S1",1,1
"21",21,20,32,1.055,0,1.752,1,1,"S1",1,1
"22",22,20,3,1.15,0,2.011,1,1,"S1",1,1
"23",23,20,122,2.05,0,1.7604,1,1,"S1",1,1
"24",24,20,45,1.05,0,1.6279,1,1,"S1",1,1
"25",25,20,32,1.55,0,3.848,2,2,"S1",1,1
"26",26,20,7,1.05,0,1.7528,1,1,"S1",1,1
"27",27,20,13,1.65,1,7.8331,1,2,"S1",1,1
"28",28,20,1,3.05,1,1.0948,1,2,"S1",1,1
"29",29,20,24,1.9,0,2.4692,1,1,"S1",1,1
"30",30,20,13,1.05,0,1.851,2,2,"S1",1,1
"31",31,20,7,2.55,1,1.5411,2,1,"S1",1,1
"32",32,20,24,1.65,0,2.5326,1,1,"S1",1,1
"33",33,20,24,2.25,0,7.4656,2,2,"S1",1,1
"34",34,20,24,1.55,0,2.5512,2,2,"S1",1,1
"35",35,20,32,1.65,0,3.2439,2,2,"S1",1,1
"36",36,20,58,1.45,0,2.1947,2,2,"S1",1,1
"37",37,20,13,3.45,1,3.9924,2,1,"S1",1,1
"38",38,20,1,1.85,1,2.0665,1,2,"S1",1,1
"39",39,20,58,2.55,1,2.635,2,1,"S1",1,1
"40",40,20,45,1.45,0,3.6906,2,2,"S1",1,1
"41",41,20,45,1.15,0,1.4457,2,2,"S1",1,1
"42",42,20,7,3.05,1,1.1992,2,1,"S1",1,1
"43",43,20,45,3.05,1,2.5256,2,1,"S1",1,1
"44",44,20,7,1.55,1,4.7707,2,1,"S1",1,1
"45",45,20,24,1.45,0,5.0552,2,2,"S1",1,1
"46",46,20,7,2.85,1,2.7923,1,2,"S1",1,1
"47",47,20,1,3.45,1,1.4739,2,1,"S1",1,1
"48",48,20,3,3.85,1,1.561,2,1,"S1",1,1
"49",49,20,75,1.55,0,2.3555,1,1,"S1",1,1
"50",50,20,58,2.05,0,1.8695,1,1,"S1",1,1
"51",51,20,75,1.9,0,1.6167,1,1,"S1",1,1
"52",52,20,75,2.85,0,5.051,1,1,"S1",1,1
"53",53,20,75,1.65,0,1.1458,2,2,"S1",1,1
"54",54,20,32,3.05,1,1.3867,1,2,"S1",1,1
"55",55,20,13,1.055,0,1.8329,1,1,"S1",1,1
"56",56,20,7,1.65,0,4.1437,1,1,"S1",1,1
"57",57,20,13,2.85,1,1.4871,2,1,"S1",1,1
"58",58,20,122,1.45,0,1.4662,2,2,"S1",1,1
"59",59,20,75,1.45,0,3.5563,2,2,"S1",1,1
"60",60,20,1,1.9,0,1.5201,2,2,"S1",1,1
"61",61,20,1,1.35,1,2.7994,1,2,"S1",1,1
"62",62,20,7,1.9,0,2.2156,2,2,"S1",1,1
"63",63,20,75,3.05,0,3.9614,2,2,"S1",1,1
"64",64,20,13,3.85,1,1.3616,1,2,"S1",1,1
"65",65,20,3,3.45,1,1.8705,1,2,"S1",1,1
"66",66,20,32,2.85,1,2.598,2,1,"S1",1,1
"67",67,20,45,3.45,1,2.2924,1,2,"S1",1,1
"68",68,20,45,1.35,0,1.8433,2,2,"S1",1,1
"69",69,20,3,3.05,1,1.1094,1,2,"S1",1,1
"70",70,20,24,1.85,0,1.7375,2,2,"S1",1,1
"71",71,20,1,1.05,0,2.199,2,2,"S1",1,1
"72",72,20,75,1.055,0,1.3603,2,2,"S1",1,1
"73",73,20,122,2.55,0,1.681,2,2,"S1",1,1
"74",74,20,75,1.25,0,1.884,2,2,"S1",1,1
"75",75,20,45,2.85,0,4.8176,2,2,"S1",1,1
"76",76,20,58,1.05,0,1.3731,2,2,"S1",1,1
"77",77,20,3,1.55,1,1.535,2,1,"S1",1,1
"78",78,20,1,3.85,1,1.3721,2,1,"S1",1,1
"79",79,20,58,1.25,0,2.6151,1,1,"S1",1,1
"80",80,20,122,1.65,0,0.9968,1,1,"S1",1,1
"81",81,20,122,2.85,0,1.6383,2,2,"S1",1,1
"82",82,20,3,1.05,0,1.8158,1,1,"S1",1,1
"83",83,20,58,3.85,1,1.8005,2,1,"S1",1,1
"84",84,20,58,1.15,0,1.624,1,1,"S1",1,1
"85",85,20,32,3.45,1,1.8499,1,2,"S1",1,1
"86",86,20,24,1.05,0,2.5732,2,2,"S1",1,1
"87",87,20,75,1.85,0,1.7883,2,2,"S1",1,1
"88",88,20,75,1.15,0,2.5564,2,2,"S1",1,1
"89",89,20,32,1.35,0,2.2696,1,1,"S1",1,1
"90",90,20,45,3.85,1,1.6646,1,2,"S1",1,1
"91",91,20,32,1.85,0,2.0622,1,1,"S1",1,1
"92",92,20,32,1.15,0,1.7464,2,2,"S1",1,1
"93",93,20,122,1.05,0,1.7029,2,2,"S1",1,1
"94",94,20,13,1.85,1,2.4487,2,1,"S1",1,1
"95",95,20,122,1.25,0,1.529,1,1,"S1",1,1
"96",96,20,13,1.45,1,2.0939,1,2,"S1",1,1
"97",97,20,58,1.85,0,3.267,1,1,"S1",1,1
"98",98,20,122,1.15,0,1.433,1,1,"S1",1,1
"99",99,20,58,1.055,0,2.6989,2,2,"S1",1,1
"100",100,20,7,3.85,1,1.8306,1,2,"S1",1,1
"101",101,20,13,2.55,1,2.2055,1,2,"S1",1,1
"102",102,20,122,1.055,0,1.5432,2,2,"S1",1,1
"103",103,20,75,3.85,1,4.6009,2,1,"S1",1,1
"104",104,20,58,1.9,0,4.9917,2,2,"S1",1,1
"105",105,20,45,1.85,0,2.8794,1,1,"S1",1,1
"106",106,20,24,2.85,1,7.0526,1,2,"S1",1,1
"107",107,20,13,3.05,1,1.5608,2,1,"S1",1,1
"108",108,20,45,2.05,0,2.9876,1,1,"S1",1,1
"109",109,20,45,1.055,0,1.0875,1,1,"S1",1,1
"110",110,20,122,1.85,0,1.6155,2,2,"S1",1,1
"111",111,20,3,1.45,1,2.6521,2,1,"S1",1,1
"112",112,20,45,2.55,1,4.0465,1,2,"S1",1,1
"113",113,20,1,2.55,1,0.9987,1,2,"S1",1,1
"114",114,20,13,1.9,1,1.7897,1,2,"S1",1,1
"115",115,20,13,1.15,0,3.1974,1,1,"S1",1,1
"116",116,20,45,1.25,0,1.9106,2,2,"S1",1,1
"117",117,20,58,3.45,1,1.7013,2,1,"S1",1,1
"118",118,20,13,2.25,1,3.124,1,2,"S1",1,1
"119",119,20,3,1.9,1,2.1987,2,1,"S1",1,1
"120",120,20,32,2.55,1,1.9667,1,2,"S1",1,1
"121",121,20,7,1.85,1,1.8808,2,1,"S1",1,1
"122",122,20,122,1.55,0,1.4829,1,1,"S1",1,1
"123",123,20,75,2.25,0,3.9943,2,2,"S1",1,1
"124",124,20,7,2.05,1,2.4065,2,1,"S1",1,1
"125",125,20,1,2.25,1,1.6833,1,2,"S1",1,1
"126",126,20,122,3.05,0,1.2695,2,2,"S1",1,1
"127",127,20,24,1.25,0,3.4965,1,1,"S1",1,1
"128",128,20,122,3.45,0,1.8471,2,2,"S1",1,1
"129",129,20,24,3.45,1,6.0599,2,1,"S1",1,1
"130",130,20,13,1.55,1,3.2217,1,2,"S1",1,1
"131",131,20,58,2.85,1,2.2471,1,2,"S1",1,1
"132",132,20,7,1.45,1,3.2074,2,1,"S1",1,1
"133",133,20,24,1.35,0,1.7873,1,1,"S1",1,1
"134",134,20,3,2.55,1,2.6866,1,2,"S1",1,1
"135",135,20,58,1.35,0,3.0096,1,1,"S1",1,1
"136",136,20,75,1.35,0,2.0467,1,1,"S1",1,1
"137",137,20,3,1.35,1,2.3088,2,1,"S1",1,1
"138",138,20,45,1.55,0,3.6249,2,2,"S1",1,1
"139",139,20,1,1.25,0,1.3032,2,2,"S1",1,1
"140",140,20,13,2.05,1,2.1831,2,1,"S1",1,1
"141",141,20,75,3.45,1,1.5973,1,2,"S1",1,1
"142",142,20,122,3.85,1,4.5567,2,1,"S1",1,1
"143",143,20,7,1.35,1,3.1287,1,2,"S1",1,1
"144",144,20,45,1.9,0,2.5127,2,2,"S1",1,1
"145",145,20,45,2.25,0,2.6057,1,1,"S1",1,1
"146",146,20,75,2.55,1,2.883,1,2,"S1",1,1
"147",147,20,13,1.25,0,2.5205,1,1,"S1",1,1
"148",148,20,7,1.15,1,5.2191,2,1,"S1",1,1
"149",149,20,122,1.35,0,2.2906,2,2,"S1",1,1
"150",150,20,32,1.25,0,2.4705,1,1,"S1",1,1
"151",151,20,32,1.45,0,2.6814,1,1,"S1",1,1
"152",152,20,1,1.45,1,4.0503,1,2,"S1",1,1
"153",153,20,1,2.85,1,4.0268,1,2,"S1",1,1
"154",154,20,7,3.45,1,1.2645,2,1,"S1",1,1
"155",155,20,3,2.85,1,1.6371,2,1,"S1",1,1
"156",156,20,1,1.65,1,1.5625,2,1,"S1",1,1
"157",157,20,3,1.85,1,1.4003,2,1,"S1",1,1
"158",158,20,24,1.15,0,1.8391,2,2,"S1",1,1
"159",159,20,122,2.25,0,1.03,1,1,"S1",1,1
"160",160,20,7,1.055,0,2.767,2,2,"S1",1,1
"161",161,20,58,1.65,0,1.9116,2,2,"S1",1,1
"162",162,20,3,2.25,1,2.9326,1,2,"S1",1,1
"163",163,20,75,2.05,0,1.8878,1,1,"S1",1,1
"164",164,20,13,1.35,0,3.3636,2,2,"S1",1,1
"165",165,20,24,1.055,0,1.6935,1,1,"S1",1,1
"166",166,20,32,2.05,1,2.8295,2,1,"S1",1,1
"167",167,20,1,2.05,1,1.2995,2,1,"S1",1,1
"168",168,20,3,1.65,1,1.2793,2,1,"S1",1,1
"169",169,20,3,1.055,0,2.6653,2,2,"S1",1,1
"170",170,20,1,1.055,1,4.3044,2,1,"S1",1,1
"171",1,20,118,3.1,1,3.7158,2,1,"S2",1,0
"172",2,20,4,1.33,1,5.4891,2,1,"S2",1,0
"173",3,20,23,2.07,1,4.6026,2,1,"S2",1,0
"174",4,20,50,2.07,1,4.3387,1,2,"S2",1,0
"175",5,20,118,1.2,0,2.4738,2,2,"S2",1,0
"176",6,20,4,3.5,1,1.7245,2,1,"S2",1,0
"177",7,20,6,1.2,1,4.8351,1,2,"S2",1,0
"178",8,20,4,1.025,0,1.6346,2,2,"S2",1,0
"179",9,20,62,2.07,1,3.933,2,1,"S2",1,0
"180",10,20,118,1.025,0,1.689,1,1,"S2",1,0
"181",11,20,50,2.3,1,4.0474,1,2,"S2",1,0
"182",12,20,62,1.2,0,1.7174,1,1,"S2",1,0
"183",13,20,29,1.7,1,4.5654,2,1,"S2",1,0
"184",14,20,62,1.025,0,1.6734,2,2,"S2",1,0
"185",15,20,118,1.5,0,2.0217,1,1,"S2",1,0
"186",16,20,118,3.8,1,5.5277,1,2,"S2",1,0
"187",17,20,4,1.085,0,1.5588,2,2,"S2",1,0
"188",18,20,73,1.5,0,2.6191,2,2,"S2",1,0
"189",19,20,23,1.2,0,3.5473,2,2,"S2",1,0
"190",20,20,6,3.1,1,1.6698,2,1,"S2",1,0
"191",21,20,50,2.8,1,8.4355,1,2,"S2",1,0
"192",22,20,62,1.085,0,1.4314,2,2,"S2",1,0
"193",23,20,6,1.33,0,1.9572,1,1,"S2",1,0
"194",24,20,50,3.1,1,3.8588,2,1,"S2",1,0
"195",25,20,14,1.2,0,2.13,1,1,"S2",1,0
"196",26,20,29,2.8,1,3.449,1,2,"S2",1,0
"197",27,20,62,1.9,0,4.6904,1,1,"S2",1,0
"198",28,20,73,1.9,0,2.6055,2,2,"S2",1,0
"199",29,20,14,1.085,0,1.336,2,2,"S2",1,0
"200",30,20,14,3.5,1,1.1899,1,2,"S2",1,0
"201",31,20,6,1.5,1,3.8271,1,2,"S2",1,0
"202",32,20,23,1.2,0,2.5951,2,2,"S2",1,0
"203",33,20,62,3.8,1,3.184,1,2,"S2",1,0
"204",34,20,29,1.5,0,3.8703,2,2,"S2",1,0
"205",35,20,4,1.2,0,1.6422,1,1,"S2",1,0
"206",36,20,4,3.1,1,2.3016,1,2,"S2",1,0
"207",37,20,23,1.08,0,1.689,1,1,"S2",1,0
"208",38,20,2,2.07,1,2.0148,1,2,"S2",1,0
"209",39,20,29,1.83,1,4.1321,2,1,"S2",1,0
"210",40,20,118,1.47,0,1.917,1,1,"S2",1,0
"211",41,20,73,2.3,0,3.0488,1,1,"S2",1,0
"212",42,20,73,1.02,0,1.7108,1,1,"S2",1,0
"213",43,20,23,3.8,1,2.8832,1,2,"S2",1,0
"214",44,20,29,1.2,0,1.8269,1,1,"S2",1,0
"215",45,20,50,1.2,0,2.0982,2,2,"S2",1,0
"216",46,20,73,1.47,0,3.6655,1,1,"S2",1,0
"217",47,20,62,1.5,0,2.5445,2,2,"S2",1,0
"218",48,20,29,2.3,1,4.3344,1,2,"S2",1,0
"219",49,20,118,1.33,0,1.3858,1,1,"S2",1,0
"220",50,20,50,1.9,0,3.5333,2,2,"S2",1,0
"221",51,20,4,1.2,0,3.099,2,2,"S2",1,0
"222",52,20,6,1.08,0,1.3836,2,2,"S2",1,0
"223",53,20,2,2.5,1,2.766,1,2,"S2",1,0
"224",54,20,118,2.5,0,6.158,2,2,"S2",1,0
"225",55,20,6,2.07,1,2.0043,1,2,"S2",1,0
"226",56,20,23,2.3,1,2.5999,1,2,"S2",1,0
"227",57,20,118,2.3,0,1.5871,1,1,"S2",1,0
"228",58,20,23,1.47,0,2.5719,1,1,"S2",1,0
"229",59,20,62,2.3,0,6.2443,2,2,"S2",1,0
"230",60,20,50,1.47,0,7.0336,2,2,"S2",1,0
"231",61,20,62,3.5,1,1.7362,2,1,"S2",1,0
"232",62,20,4,2.07,1,2.1376,2,1,"S2",1,0
"233",63,20,73,3.1,1,6.4026,2,1,"S2",1,0
"234",64,20,14,3.8,1,1.5955,1,2,"S2",1,0
"235",65,20,2,3.8,1,1.4985,1,2,"S2",1,0
"236",66,20,29,1.025,0,2.1597,1,1,"S2",1,0
"237",67,20,118,1.7,0,1.5645,2,2,"S2",1,0
"238",68,20,62,2.8,0,5.7555,2,2,"S2",1,0
"239",69,20,2,3.1,1,3.2801,2,1,"S2",1,0
"240",70,20,118,1.9,0,1.6416,2,2,"S2",1,0
"241",71,20,50,1.33,0,1.8042,1,1,"S2",1,0
"242",72,20,23,3.5,1,1.5181,1,2,"S2",1,0
"243",73,20,2,2.3,1,3.5043,2,1,"S2",1,0
"244",74,20,2,1.9,1,1.9032,2,1,"S2",1,0
"245",75,20,6,1.7,1,3.798,2,1,"S2",1,0
"246",76,20,118,1.085,0,1.4226,2,2,"S2",1,0
"247",77,20,29,3.5,1,2.1805,2,1,"S2",1,0
"248",78,20,23,3.1,1,3.146,2,1,"S2",1,0
"249",79,20,6,3.8,1,2.409,1,2,"S2",1,0
"250",80,20,50,1.2,0,1.7909,1,1,"S2",1,0
"251",81,20,14,1.33,0,2.4583,2,2,"S2",1,0
"252",82,20,4,2.3,1,1.6608,2,1,"S2",1,0
"253",83,20,2,2.8,1,1.3808,2,1,"S2",1,0
"254",84,20,29,1.085,0,1.4806,1,1,"S2",1,0
"255",85,20,62,1.33,0,1.708,1,1,"S2",1,0
"256",86,20,29,3.8,1,1.6222,2,1,"S2",1,0
"257",87,20,6,1.83,1,3.9693,2,1,"S2",1,0
"258",88,20,2,1.47,0,1.2188,2,2,"S2",1,0
"259",89,20,6,1.47,1,3.133,1,2,"S2",1,0
"260",90,20,29,1.33,0,3.9406,2,2,"S2",1,0
"261",91,20,50,1.5,0,2.2776,2,2,"S2",1,0
"262",92,20,62,1.7,0,1.5237,2,2,"S2",1,0
"263",93,20,118,2.8,0,1.3789,1,1,"S2",1,0
"264",94,20,4,1.7,1,1.8288,1,2,"S2",1,0
"265",95,20,6,2.8,1,2.4339,2,1,"S2",1,0
"266",96,20,6,2.5,1,5.5467,1,2,"S2",1,0
"267",97,20,73,2.07,0,1.8015,2,2,"S2",1,0
"268",98,20,29,2.07,1,4.8522,1,2,"S2",1,0
"269",99,20,4,1.9,1,2.1359,2,1,"S2",1,0
"270",100,20,2,1.2,1,3.8501,1,2,"S2",1,0
"271",101,20,73,1.2,0,1.5326,1,1,"S2",1,0
"272",102,20,50,3.8,1,1.8382,2,1,"S2",1,0
"273",103,20,62,2.5,1,7.0194,1,2,"S2",1,0
"274",104,20,14,3.1,1,1.3793,2,1,"S2",1,0
"275",105,20,2,1.5,1,3.476,2,1,"S2",1,0
"276",106,20,50,1.08,0,1.5871,1,1,"S2",1,0
"277",107,20,14,2.07,1,3.3958,1,2,"S2",1,0
"278",108,20,118,2.07,0,1.4499,2,2,"S2",1,0
"279",109,20,2,1.2,1,2.0194,2,1,"S2",1,0
"280",110,20,23,1.5,0,5.3236,1,1,"S2",1,0
"281",111,20,14,2.3,1,1.6174,2,1,"S2",1,0
"282",112,20,2,1.33,0,3.1859,1,1,"S2",1,0
"283",113,20,6,1.2,0,3.1851,2,2,"S2",1,0
"284",114,20,4,1.5,1,1.6693,1,2,"S2",1,0
"285",115,20,23,2.8,1,2.3775,2,1,"S2",1,0
"286",116,20,23,1.33,0,1.8776,2,2,"S2",1,0
"287",117,20,6,3.5,1,2.6439,1,2,"S2",1,0
"288",118,20,50,1.7,0,1.5903,1,1,"S2",1,0
"289",119,20,23,1.7,0,3.2235,1,1,"S2",1,0
"290",120,20,14,1.2,0,2.3386,1,1,"S2",1,0
"291",121,20,14,2.5,1,2.303,2,1,"S2",1,0
"292",122,20,6,1.9,1,1.9528,2,1,"S2",1,0
"293",123,20,118,3.5,1,3.6965,2,1,"S2",1,0
"294",124,20,73,3.5,1,2.3328,2,1,"S2",1,0
"295",125,20,29,1.2,0,2.9299,2,2,"S2",1,0
"296",126,20,4,1.47,1,1.6802,1,2,"S2",1,0
"297",127,20,50,1.02,0,1.4982,1,1,"S2",1,0
"298",128,20,29,2.5,1,1.3839,2,1,"S2",1,0
"299",129,20,2,1.7,1,2.7087,2,1,"S2",1,0
"300",130,20,62,1.83,0,2.4287,2,2,"S2",1,0
"301",131,20,14,1.5,0,3.8604,1,1,"S2",1,0
"302",132,20,73,2.5,1,6.6298,2,1,"S2",1,0
"303",133,20,14,1.7,1,6.1946,2,1,"S2",1,0
"304",134,20,6,2.3,1,1.5166,2,1,"S2",1,0
"305",135,20,4,2.5,1,0.9577,2,1,"S2",1,0
"306",136,20,6,1.02,0,1.6806,2,2,"S2",1,0
"307",137,20,23,1.02,0,1.2012,1,1,"S2",1,0
"308",138,20,73,1.83,0,1.7446,2,2,"S2",1,0
"309",139,20,14,2.8,1,1.9247,1,2,"S2",1,0
"310",140,20,14,1.83,1,4.4674,1,2,"S2",1,0
"311",141,20,23,1.83,0,3.1008,2,2,"S2",1,0
"312",142,20,73,1.33,0,3.1034,2,2,"S2",1,0
"313",143,20,62,1.2,0,1.4757,2,2,"S2",1,0
"314",144,20,29,1.47,1,3.5697,1,2,"S2",1,0
"315",145,20,118,1.2,0,1.9848,2,2,"S2",1,0
"316",146,20,14,1.025,0,3.3059,2,2,"S2",1,0
"317",147,20,50,1.83,0,1.4043,1,1,"S2",1,0
"318",148,20,14,1.47,1,2.7996,1,2,"S2",1,0
"319",149,20,2,1.02,0,2.7043,1,1,"S2",1,0
"320",150,20,14,1.9,1,2.1843,2,1,"S2",1,0
"321",151,20,23,1.9,1,2.7538,2,1,"S2",1,0
"322",152,20,62,1.47,0,1.5808,1,1,"S2",1,0
"323",153,20,118,1.83,0,2.0504,1,1,"S2",1,0
"324",154,20,29,1.9,1,1.8216,2,1,"S2",1,0
"325",155,20,50,2.5,1,4.6957,2,1,"S2",1,0
"326",156,20,2,3.5,1,1.1884,1,2,"S2",1,0
"327",157,20,23,2.5,1,3.7634,1,2,"S2",1,0
"328",158,20,4,1.83,1,2.4035,2,1,"S2",1,0
"329",159,20,2,1.83,1,2.8314,1,2,"S2",1,0
"330",160,20,73,2.8,1,3.6479,1,2,"S2",1,0
"331",161,20,4,3.8,1,1.5627,2,1,"S2",1,0
"332",162,20,73,1.08,0,1.1022,1,1,"S2",1,0
"333",163,20,73,3.8,1,1.719,1,2,"S2",1,0
"334",164,20,4,2.8,1,2.2837,1,2,"S2",1,0
"335",165,20,62,3.1,1,2.6661,1,2,"S2",1,0
"336",166,20,29,3.1,1,2.3767,1,2,"S2",1,0
"337",167,20,50,3.5,1,1.1693,1,2,"S2",1,0
"338",168,20,73,1.2,0,6.236,2,2,"S2",1,0
"339",169,20,2,1.08,0,1.5136,1,1,"S2",1,0
"340",170,20,73,1.7,0,1.8837,1,1,"S2",1,0
"341",1,20,122,3.05,0,3.0311,2,2,"S1",2,1
"342",2,20,3,1.05,0,2.0215,2,2,"S1",2,1
"343",3,20,7,1.9,0,6.8192,1,1,"S1",2,1
"344",4,20,32,2.85,0,1.5614,1,1,"S1",2,1
"345",5,20,75,2.25,0,1.4196,1,1,"S1",2,1
"346",6,20,13,1.05,0,1.9288,2,2,"S1",2,1
"347",7,20,24,2.55,0,1.6627,1,1,"S1",2,1
"348",8,20,13,2.55,0,1.7932,2,2,"S1",2,1
"349",9,20,75,1.9,0,1.6513,1,1,"S1",2,1
"350",10,20,24,1.35,0,1.6234,2,2,"S1",2,1
"351",11,20,1,2.55,1,2.3289,2,1,"S1",2,1
"352",12,20,58,1.15,0,1.9361,1,1,"S1",2,1
"353",13,20,75,1.35,0,1.2375,1,1,"S1",2,1
"354",14,20,32,1.45,0,1.5823,1,1,"S1",2,1
"355",15,20,32,3.05,0,1.4383,2,2,"S1",2,1
"356",16,20,58,3.45,0,1.2807,1,1,"S1",2,1
"357",17,20,32,1.15,0,1.9015,2,2,"S1",2,1
"358",18,20,13,2.25,0,1.9842,1,1,"S1",2,1
"359",19,20,7,3.45,1,3.2082,2,1,"S1",2,1
"360",20,20,58,1.9,0,2.3525,2,2,"S1",2,1
"361",21,20,3,2.05,1,1.9661,1,2,"S1",2,1
"362",22,20,75,3.85,0,1.2672,2,2,"S1",2,1
"363",23,20,32,1.55,0,1.5833,1,1,"S1",2,1
"364",24,20,1,1.65,1,2.4576,1,2,"S1",2,1
"365",25,20,122,1.05,0,1.503,1,1,"S1",2,1
"366",26,20,122,2.85,0,1.6024,1,1,"S1",2,1
"367",27,20,122,1.15,0,1.5152,1,1,"S1",2,1
"368",28,20,75,1.05,0,1.3811,1,1,"S1",2,1
"369",29,20,3,1.55,1,3.2164,1,2,"S1",2,1
"370",30,20,58,2.85,0,1.6513,2,2,"S1",2,1
"371",31,20,24,1.15,0,1.3807,1,1,"S1",2,1
"372",32,20,7,3.85,1,2.3976,2,1,"S1",2,1
"373",33,20,13,1.45,0,2.0955,2,2,"S1",2,1
"374",34,20,32,1.05,0,1.1834,1,1,"S1",2,1
"375",35,20,3,2.55,1,1.7125,2,1,"S1",2,1
"376",36,20,13,2.05,0,1.7735,2,2,"S1",2,1
"377",37,20,7,1.45,0,2.0444,2,2,"S1",2,1
"378",38,20,45,1.35,0,1.3549,1,1,"S1",2,1
"379",39,20,1,1.15,1,1.6489,1,2,"S1",2,1
"380",40,20,13,1.15,0,1.3281,2,2,"S1",2,1
"381",41,20,32,2.25,0,1.0567,2,2,"S1",2,1
"382",42,20,1,2.25,1,1.2605,2,1,"S1",2,1
"383",43,20,3,1.25,0,1.7231,1,1,"S1",2,1
"384",44,20,7,1.15,0,1.4899,1,1,"S1",2,1
"385",45,20,45,1.25,0,1.3812,1,1,"S1",2,1
"386",46,20,58,1.45,0,1.5064,2,2,"S1",2,1
"387",47,20,75,2.55,0,1.1526,1,1,"S1",2,1
"388",48,20,122,2.55,0,0.9563,2,2,"S1",2,1
"389",49,20,24,1.9,0,1.8519,2,2,"S1",2,1
"390",50,20,45,1.45,0,0.9819,2,2,"S1",2,1
"391",51,20,58,2.05,0,1.6532,1,1,"S1",2,1
"392",52,20,13,1.55,0,1.444,2,2,"S1",2,1
"393",53,20,13,1.055,0,1.6664,2,2,"S1",2,1
"394",54,20,58,1.55,0,0.8261,2,2,"S1",2,1
"395",55,20,122,2.05,0,1.2221,1,1,"S1",2,1
"396",56,20,1,2.85,1,1.9904,1,2,"S1",2,1
"397",57,20,45,2.25,0,1.3126,1,1,"S1",2,1
"398",58,20,45,1.05,0,1.5697,1,1,"S1",2,1
"399",59,20,122,1.45,0,1.088,1,1,"S1",2,1
"400",60,20,32,1.35,0,1.3497,2,2,"S1",2,1
"401",61,20,7,2.25,0,1.651,1,1,"S1",2,1
"402",62,20,24,1.55,0,1.405,2,2,"S1",2,1
"403",63,20,45,1.65,0,1.4159,2,2,"S1",2,1
"404",64,20,3,3.45,1,1.277,1,2,"S1",2,1
"405",65,20,75,1.55,0,1.3358,1,1,"S1",2,1
"406",66,20,3,1.15,0,2.3317,2,2,"S1",2,1
"407",67,20,75,3.45,0,1.0103,2,2,"S1",2,1
"408",68,20,75,2.05,0,1.3261,1,1,"S1",2,1
"409",69,20,24,2.05,0,1.0804,2,2,"S1",2,1
"410",70,20,3,2.85,1,1.5473,2,1,"S1",2,1
"411",71,20,58,1.65,0,1.2991,2,2,"S1",2,1
"412",72,20,32,3.85,0,1.018,1,1,"S1",2,1
"413",73,20,122,1.85,0,1.4331,2,2,"S1",2,1
"414",74,20,45,1.85,0,1.4838,2,2,"S1",2,1
"415",75,20,7,1.05,0,1.4078,1,1,"S1",2,1
"416",76,20,122,3.45,0,1.0741,1,1,"S1",2,1
"417",77,20,75,1.15,0,1.3343,1,1,"S1",2,1
"418",78,20,122,3.85,0,1.1295,1,1,"S1",2,1
"419",79,20,32,1.9,0,1.2749,2,2,"S1",2,1
"420",80,20,7,2.55,0,2.3941,1,1,"S1",2,1
"421",81,20,1,3.45,1,1.2755,2,1,"S1",2,1
"422",82,20,13,1.9,0,1.3785,1,1,"S1",2,1
"423",83,20,3,3.85,1,1.2602,2,1,"S1",2,1
"424",84,20,1,1.55,1,1.8788,1,2,"S1",2,1
"425",85,20,13,1.25,0,1.1503,1,1,"S1",2,1
"426",86,20,7,1.55,0,1.4312,2,2,"S1",2,1
"427",87,20,7,2.05,0,1.4375,1,1,"S1",2,1
"428",88,20,24,2.25,0,0.8984,2,2,"S1",2,1
"429",89,20,24,2.85,0,1.0547,2,2,"S1",2,1
"430",90,20,32,1.25,0,1.0225,1,1,"S1",2,1
"431",91,20,13,3.45,0,3.6766,2,2,"S1",2,1
"432",92,20,45,1.9,0,1.214,1,1,"S1",2,1
"433",93,20,45,3.05,0,1.0776,1,1,"S1",2,1
"434",94,20,3,2.25,1,1.2792,2,1,"S1",2,1
"435",95,20,32,1.055,0,1.2733,2,2,"S1",2,1
"436",96,20,13,1.85,0,1.3443,1,1,"S1",2,1
"437",97,20,32,3.45,0,1.4574,2,2,"S1",2,1
"438",98,20,45,2.55,0,1.4559,1,1,"S1",2,1
"439",99,20,7,3.05,0,1.359,2,2,"S1",2,1
"440",100,20,3,1.9,1,1.5116,2,1,"S1",2,1
"441",101,20,58,1.05,0,1.2182,1,1,"S1",2,1
"442",102,20,45,1.055,0,0.886,1,1,"S1",2,1
"443",103,20,1,1.05,0,2.6745,1,1,"S1",2,1
"444",104,20,1,3.85,1,1.3094,1,2,"S1",2,1
"445",105,20,122,1.9,0,1.2529,1,1,"S1",2,1
"446",106,20,1,1.45,1,1.7828,1,2,"S1",2,1
"447",107,20,7,1.35,0,1.7024,2,2,"S1",2,1
"448",108,20,58,3.85,0,1.2724,1,1,"S1",2,1
"449",109,20,1,1.25,1,1.9186,1,2,"S1",2,1
"450",110,20,13,3.85,0,1.3119,1,1,"S1",2,1
"451",111,20,13,2.85,0,1.0323,2,2,"S1",2,1
"452",112,20,75,1.055,0,0.9747,2,2,"S1",2,1
"453",113,20,32,2.55,0,1.1438,2,2,"S1",2,1
"454",114,20,24,1.65,0,1.0317,2,2,"S1",2,1
"455",115,20,7,1.25,0,1.4323,2,2,"S1",2,1
"456",116,20,58,1.25,0,1.1121,2,2,"S1",2,1
"457",117,20,24,1.25,0,1.5264,2,2,"S1",2,1
"458",118,20,58,1.055,0,1.732,2,2,"S1",2,1
"459",119,20,122,1.65,0,1.42,1,1,"S1",2,1
"460",120,20,1,2.05,1,1.568,1,2,"S1",2,1
"461",121,20,75,1.65,0,1.1333,1,1,"S1",2,1
"462",122,20,24,1.85,0,1.7276,2,2,"S1",2,1
"463",123,20,1,1.055,0,2.4009,2,2,"S1",2,1
"464",124,20,45,2.05,0,1.2981,2,2,"S1",2,1
"465",125,20,75,1.25,0,1.0024,2,2,"S1",2,1
"466",126,20,58,2.55,0,0.8883,2,2,"S1",2,1
"467",127,20,122,2.25,0,1.2534,1,1,"S1",2,1
"468",128,20,24,1.05,0,1.0611,2,2,"S1",2,1
"469",129,20,13,1.35,0,0.9771,2,2,"S1",2,1
"470",130,20,3,1.055,0,1.3222,1,1,"S1",2,1
"471",131,20,13,3.05,0,1.1123,1,1,"S1",2,1
"472",132,20,7,1.65,0,1.5382,1,1,"S1",2,1
"473",133,20,45,3.45,0,0.9878,2,2,"S1",2,1
"474",134,20,3,1.35,0,2.0985,2,2,"S1",2,1
"475",135,20,75,1.45,0,1.3393,1,1,"S1",2,1
"476",136,20,75,3.05,0,0.9177,1,1,"S1",2,1
"477",137,20,7,1.055,0,1.1728,1,1,"S1",2,1
"478",138,20,45,1.15,0,1.1099,1,1,"S1",2,1
"479",139,20,7,2.85,1,2.6771,1,2,"S1",2,1
"480",140,20,122,1.055,0,0.7866,2,2,"S1",2,1
"481",141,20,75,2.85,0,1.0345,1,1,"S1",2,1
"482",142,20,1,1.35,1,1.8079,1,2,"S1",2,1
"483",143,20,122,1.55,0,0.9714,2,2,"S1",2,1
"484",144,20,58,3.05,0,1.3163,1,1,"S1",2,1
"485",145,20,24,3.85,0,2.6502,2,2,"S1",2,1
"486",146,20,45,3.85,0,1.1514,1,1,"S1",2,1
"487",147,20,45,1.55,0,1.2426,1,1,"S1",2,1
"488",148,20,32,1.65,0,1.1453,1,1,"S1",2,1
"489",149,20,32,2.05,0,0.8615,2,2,"S1",2,1
"490",150,20,1,1.85,1,2.1331,1,2,"S1",2,1
"491",151,20,45,2.85,0,1.736,1,1,"S1",2,1
"492",152,20,32,1.85,0,1.4188,1,1,"S1",2,1
"493",153,20,24,1.055,0,1.2032,1,1,"S1",2,1
"494",154,20,13,1.65,0,1.3095,2,2,"S1",2,1
"495",155,20,24,3.05,0,1.1578,2,2,"S1",2,1
"496",156,20,75,1.85,0,0.978,1,1,"S1",2,1
"497",157,20,122,1.35,0,1.2123,2,2,"S1",2,1
"498",158,20,58,1.35,0,1.1101,2,2,"S1",2,1
"499",159,20,24,1.45,0,0.7683,2,2,"S1",2,1
"500",160,20,58,2.25,0,1.1326,1,1,"S1",2,1
"501",161,20,3,1.85,0,2.7756,2,2,"S1",2,1
"502",162,20,3,3.05,1,1.3389,1,2,"S1",2,1
"503",163,20,3,1.65,0,3.2245,2,2,"S1",2,1
"504",164,20,122,1.25,0,1.4813,1,1,"S1",2,1
"505",165,20,58,1.85,0,4.6034,2,2,"S1",2,1
"506",166,20,1,3.05,1,1.4437,2,1,"S1",2,1
"507",167,20,3,1.45,0,1.2982,1,1,"S1",2,1
"508",168,20,7,1.85,0,1.257,1,1,"S1",2,1
"509",169,20,1,1.9,1,1.4933,1,2,"S1",2,1
"510",170,20,24,3.45,0,1.3219,1,1,"S1",2,1
"511",1,20,4,2.5,1,9.9678,1,2,"S2",2,0
"512",2,20,23,3.5,0,10.9303,1,1,"S2",2,0
"513",3,20,62,1.83,0,3.6438,2,2,"S2",2,0
"514",4,20,23,1.08,0,2.5025,1,1,"S2",2,0
"515",5,20,73,3.8,0,3.2129,1,1,"S2",2,0
"516",6,20,73,1.5,0,2.1408,1,1,"S2",2,0
"517",7,20,2,3.5,1,3.3174,1,2,"S2",2,0
"518",8,20,2,1.08,0,3.6978,2,2,"S2",2,0
"519",9,20,2,1.9,1,3.6178,2,1,"S2",2,0
"520",10,20,62,3.8,0,5.7166,1,1,"S2",2,0
"521",11,20,23,1.02,0,2.5408,1,1,"S2",2,0
"522",12,20,29,3.5,1,11.2397,1,2,"S2",2,0
"523",13,20,14,1.5,0,3.1737,2,2,"S2",2,0
"524",14,20,118,1.2,0,2.6413,2,2,"S2",2,0
"525",15,20,4,1.7,1,3.5449,1,2,"S2",2,0
"526",16,20,118,1.025,0,3.4365,1,1,"S2",2,0
"527",17,20,14,3.8,1,5.2872,1,2,"S2",2,0
"528",18,20,2,2.5,1,2.3087,1,2,"S2",2,0
"529",19,20,6,3.5,1,4.056,2,1,"S2",2,0
"530",20,20,118,1.9,0,1.8235,1,1,"S2",2,0
"531",21,20,14,3.1,1,5.7263,1,2,"S2",2,0
"532",22,20,118,1.085,0,1.4469,2,2,"S2",2,0
"533",23,20,14,2.5,0,5.7909,1,1,"S2",2,0
"534",24,20,62,1.7,0,1.7955,1,1,"S2",2,0
"535",25,20,73,2.5,0,1.5362,1,1,"S2",2,0
"536",26,20,4,1.2,1,3.7204,2,1,"S2",2,0
"537",27,20,6,1.9,1,2.9936,1,2,"S2",2,0
"538",28,20,14,2.3,0,1.9298,1,1,"S2",2,0
"539",29,20,23,1.47,0,1.8287,1,1,"S2",2,0
"540",30,20,29,1.025,0,2.0776,2,2,"S2",2,0
"541",31,20,4,1.9,1,1.9314,2,1,"S2",2,0
"542",32,20,6,2.3,1,1.7116,2,1,"S2",2,0
"543",33,20,118,1.5,0,1.3725,1,1,"S2",2,0
"544",34,20,50,1.33,0,2.8889,1,1,"S2",2,0
"545",35,20,14,1.025,0,2.9096,2,2,"S2",2,0
"546",36,20,62,1.2,0,1.5451,2,2,"S2",2,0
"547",37,20,23,1.7,0,1.518,2,2,"S2",2,0
"548",38,20,23,3.1,0,1.9563,2,2,"S2",2,0
"549",39,20,14,1.47,0,2.9708,1,1,"S2",2,0
"550",40,20,50,1.5,0,3.13,2,2,"S2",2,0
"551",41,20,23,2.8,0,2.4703,1,1,"S2",2,0
"552",42,20,73,3.1,0,1.3433,1,1,"S2",2,0
"553",43,20,14,1.7,0,2.1127,2,2,"S2",2,0
"554",44,20,2,1.2,1,2.1743,2,1,"S2",2,0
"555",45,20,62,2.5,0,1.8281,2,2,"S2",2,0
"556",46,20,50,3.5,0,3.0857,1,1,"S2",2,0
"557",47,20,4,1.47,1,1.7806,2,1,"S2",2,0
"558",48,20,2,1.7,1,1.3399,2,1,"S2",2,0
"559",49,20,73,1.83,0,1.2252,1,1,"S2",2,0
"560",50,20,4,2.3,1,1.2723,2,1,"S2",2,0
"561",51,20,6,2.8,1,2.1148,1,2,"S2",2,0
"562",52,20,2,1.47,1,1.7791,1,2,"S2",2,0
"563",53,20,50,1.02,0,1.3789,2,2,"S2",2,0
"564",54,20,2,1.5,1,1.361,2,1,"S2",2,0
"565",55,20,29,1.5,0,1.1839,2,2,"S2",2,0
"566",56,20,14,2.07,1,6.1527,2,1,"S2",2,0
"567",57,20,29,1.2,0,1.8645,2,2,"S2",2,0
"568",58,20,62,3.5,0,2.1673,2,2,"S2",2,0
"569",59,20,50,1.83,0,1.4835,1,1,"S2",2,0
"570",60,20,50,3.1,0,2.5307,2,2,"S2",2,0
"571",61,20,23,1.83,0,1.9338,2,2,"S2",2,0
"572",62,20,50,1.9,0,1.7013,1,1,"S2",2,0
"573",63,20,50,2.3,0,1.5424,1,1,"S2",2,0
"574",64,20,2,2.07,1,1.3599,1,2,"S2",2,0
"575",65,20,6,1.2,0,1.9755,1,1,"S2",2,0
"576",66,20,118,2.3,0,0.9195,2,2,"S2",2,0
"577",67,20,118,2.5,0,0.9162,2,2,"S2",2,0
"578",68,20,6,2.07,1,1.9108,1,2,"S2",2,0
"579",69,20,6,1.83,1,1.9262,2,1,"S2",2,0
"580",70,20,2,2.8,1,1.4083,1,2,"S2",2,0
"581",71,20,4,3.1,1,1.515,1,2,"S2",2,0
"582",72,20,73,2.8,0,1.5852,1,1,"S2",2,0
"583",73,20,4,1.085,0,2.822,1,1,"S2",2,0
"584",74,20,29,1.7,0,1.2153,2,2,"S2",2,0
"585",75,20,29,1.2,0,1.3922,2,2,"S2",2,0
"586",76,20,29,3.8,0,1.5459,1,1,"S2",2,0
"587",77,20,73,1.08,0,1.1864,2,2,"S2",2,0
"588",78,20,2,1.83,1,1.3195,2,1,"S2",2,0
"589",79,20,73,1.9,0,1.3431,1,1,"S2",2,0
"590",80,20,29,2.5,0,1.2874,1,1,"S2",2,0
"591",81,20,118,1.2,0,1.2915,1,1,"S2",2,0
"592",82,20,62,1.2,0,1.3191,1,1,"S2",2,0
"593",83,20,29,3.1,0,0.8974,2,2,"S2",2,0
"594",84,20,23,1.2,0,1.3469,1,1,"S2",2,0
"595",85,20,50,2.8,0,0.8653,2,2,"S2",2,0
"596",86,20,2,2.3,1,1.1186,1,2,"S2",2,0
"597",87,20,6,3.1,1,1.2834,2,1,"S2",2,0
"598",88,20,6,1.5,1,3.4844,1,2,"S2",2,0
"599",89,20,4,1.2,1,3.5196,1,2,"S2",2,0
"600",90,20,2,3.1,1,1.4745,2,1,"S2",2,0
"601",91,20,62,2.07,0,1.2308,1,1,"S2",2,0
"602",92,20,50,2.5,0,1.3266,1,1,"S2",2,0
"603",93,20,23,2.3,1,1.0967,2,1,"S2",2,0
"604",94,20,73,3.5,0,1.3755,1,1,"S2",2,0
"605",95,20,2,1.02,0,2.6306,1,1,"S2",2,0
"606",96,20,62,2.8,0,1.0278,1,1,"S2",2,0
"607",97,20,23,2.5,0,0.9063,2,2,"S2",2,0
"608",98,20,50,2.07,0,1.5858,2,2,"S2",2,0
"609",99,20,6,1.02,0,2.5415,1,1,"S2",2,0
"610",100,20,14,1.33,0,1.4302,2,2,"S2",2,0
"611",101,20,118,1.7,0,0.9479,2,2,"S2",2,0
"612",102,20,118,3.1,0,0.6823,2,2,"S2",2,0
"613",103,20,118,1.83,0,1.1796,2,2,"S2",2,0
"614",104,20,29,2.07,0,1.6341,1,1,"S2",2,0
"615",105,20,6,1.08,0,1.4081,1,1,"S2",2,0
"616",106,20,4,1.33,1,2.9407,1,2,"S2",2,0
"617",107,20,73,1.33,0,1.1961,1,1,"S2",2,0
"618",108,20,62,2.3,0,1.9446,2,2,"S2",2,0
"619",109,20,23,1.5,0,1.9695,1,1,"S2",2,0
"620",110,20,4,3.5,1,1.636,1,2,"S2",2,0
"621",111,20,23,2.07,0,1.2214,2,2,"S2",2,0
"622",112,20,118,3.5,0,1.0733,2,2,"S2",2,0
"623",113,20,62,1.5,0,1.1507,2,2,"S2",2,0
"624",114,20,73,2.07,0,1.6216,1,1,"S2",2,0
"625",115,20,4,2.07,1,1.7961,1,2,"S2",2,0
"626",116,20,6,1.2,0,2.2503,1,1,"S2",2,0
"627",117,20,14,1.83,0,1.2536,2,2,"S2",2,0
"628",118,20,62,1.33,0,1.2384,2,2,"S2",2,0
"629",119,20,6,1.47,1,1.865,2,1,"S2",2,0
"630",120,20,118,2.8,0,1.2849,2,2,"S2",2,0
"631",121,20,73,2.3,0,1.4448,2,2,"S2",2,0
"632",122,20,14,1.2,0,1.7757,1,1,"S2",2,0
"633",123,20,14,1.9,0,1.7971,2,2,"S2",2,0
"634",124,20,62,1.9,0,0.9146,2,2,"S2",2,0
"635",125,20,29,1.83,0,1.0767,1,1,"S2",2,0
"636",126,20,14,3.5,1,1.8757,2,1,"S2",2,0
"637",127,20,50,3.8,0,1.5518,2,2,"S2",2,0
"638",128,20,6,3.8,1,1.6341,1,2,"S2",2,0
"639",129,20,4,1.5,1,2.0133,2,1,"S2",2,0
"640",130,20,73,1.47,0,0.9745,2,2,"S2",2,0
"641",131,20,50,1.2,0,1.3751,1,1,"S2",2,0
"642",132,20,4,3.8,1,1.3604,1,2,"S2",2,0
"643",133,20,29,1.47,0,1.1999,2,2,"S2",2,0
"644",134,20,73,1.2,0,1.167,1,1,"S2",2,0
"645",135,20,2,3.8,1,1.1065,1,2,"S2",2,0
"646",136,20,62,1.085,0,1.0897,1,1,"S2",2,0
"647",137,20,62,1.47,0,1.5853,1,1,"S2",2,0
"648",138,20,73,1.7,0,1.2565,1,1,"S2",2,0
"649",139,20,29,1.9,0,1.3215,1,1,"S2",2,0
"650",140,20,62,3.1,0,1.1885,1,1,"S2",2,0
"651",141,20,14,1.085,0,1.3916,1,1,"S2",2,0
"652",142,20,50,1.08,0,1.4665,1,1,"S2",2,0
"653",143,20,14,1.2,0,1.4026,2,2,"S2",2,0
"654",144,20,6,1.7,1,1.258,1,2,"S2",2,0
"655",145,20,50,1.47,0,0.9597,2,2,"S2",2,0
"656",146,20,62,1.025,0,1.8452,1,1,"S2",2,0
"657",147,20,29,1.085,0,2.0289,2,2,"S2",2,0
"658",148,20,118,3.8,0,1.4247,1,1,"S2",2,0
"659",149,20,6,2.5,1,1.2416,2,1,"S2",2,0
"660",150,20,50,1.7,0,1.3703,2,2,"S2",2,0
"661",151,20,4,1.025,0,1.5294,2,2,"S2",2,0
"662",152,20,4,2.8,1,1.4412,2,1,"S2",2,0
"663",153,20,29,2.8,0,1.1106,1,1,"S2",2,0
"664",154,20,4,1.83,1,1.5384,1,2,"S2",2,0
"665",155,20,118,1.33,0,1.6491,1,1,"S2",2,0
"666",156,20,2,1.33,1,2.178,1,2,"S2",2,0
"667",157,20,73,1.02,0,1.1728,1,1,"S2",2,0
"668",158,20,23,1.33,0,1.5102,2,2,"S2",2,0
"669",159,20,23,1.2,0,1.6042,2,2,"S2",2,0
"670",160,20,6,1.33,0,2.1751,2,2,"S2",2,0
"671",161,20,73,1.2,0,0.7764,2,2,"S2",2,0
"672",162,20,23,3.8,0,2.3808,2,2,"S2",2,0
"673",163,20,29,2.3,0,1.392,1,1,"S2",2,0
"674",164,20,118,2.07,0,1.1244,2,2,"S2",2,0
"675",165,20,118,1.47,0,1.0551,1,1,"S2",2,0
"676",166,20,29,1.33,0,1.5662,2,2,"S2",2,0
"677",167,20,2,1.2,1,1.6831,2,1,"S2",2,0
"678",168,20,14,2.8,1,2.3208,2,1,"S2",2,0
"679",169,20,50,1.2,0,1.6905,2,2,"S2",2,0
"680",170,20,23,1.9,0,2.4187,2,2,"S2",2,0
"681",1,20,3,3.45,1,4.4626,1,2,"S1",3,1
"682",2,20,122,1.85,0,2.3368,2,2,"S1",3,1
"683",3,20,24,3.45,0,4.8862,1,1,"S1",3,1
"684",4,20,1,2.25,1,2.0343,2,1,"S1",3,1
"685",5,20,13,1.65,0,2.742,1,1,"S1",3,1
"686",6,20,13,1.05,0,2.3148,1,1,"S1",3,1
"687",7,20,1,1.05,0,4.4184,2,2,"S1",3,1
"688",8,20,45,1.05,0,1.7237,2,2,"S1",3,1
"689",9,20,58,1.15,0,3.5065,2,2,"S1",3,1
"690",10,20,1,1.35,1,2.2162,2,1,"S1",3,1
"691",11,20,75,1.15,0,3.3363,2,2,"S1",3,1
"692",12,20,1,1.65,1,1.6708,2,1,"S1",3,1
"693",13,20,122,1.35,0,1.8755,1,1,"S1",3,1
"694",14,20,1,3.45,1,4.0821,1,2,"S1",3,1
"695",15,20,24,2.05,0,2.3725,1,1,"S1",3,1
"696",16,20,122,1.05,0,1.4697,2,2,"S1",3,1
"697",17,20,1,1.15,1,1.9248,1,2,"S1",3,1
"698",18,20,32,1.65,0,3.1655,1,1,"S1",3,1
"699",19,20,3,1.05,0,1.9112,2,2,"S1",3,1
"700",20,20,24,1.85,0,2.7563,2,2,"S1",3,1
"701",21,20,75,2.25,0,2.6502,1,1,"S1",3,1
"702",22,20,13,1.45,0,2.6662,2,2,"S1",3,1
"703",23,20,45,1.25,0,2.3155,1,1,"S1",3,1
"704",24,20,45,3.85,1,2.4538,2,1,"S1",3,1
"705",25,20,75,3.05,1,2.9419,1,2,"S1",3,1
"706",26,20,75,2.85,0,4.2128,1,1,"S1",3,1
"707",27,20,58,1.35,0,1.7225,1,1,"S1",3,1
"708",28,20,58,1.9,0,1.9364,2,2,"S1",3,1
"709",29,20,24,1.9,0,1.7207,2,2,"S1",3,1
"710",30,20,45,1.15,0,2.7288,1,1,"S1",3,1
"711",31,20,13,2.25,1,5.9481,2,1,"S1",3,1
"712",32,20,7,2.85,1,1.6773,2,1,"S1",3,1
"713",33,20,32,1.35,0,1.9305,2,2,"S1",3,1
"714",34,20,32,3.85,1,2.7172,2,1,"S1",3,1
"715",35,20,13,2.85,1,2.0657,2,1,"S1",3,1
"716",36,20,7,1.05,0,1.4503,2,2,"S1",3,1
"717",37,20,3,2.85,1,2.7326,2,1,"S1",3,1
"718",38,20,1,1.55,1,1.5414,2,1,"S1",3,1
"719",39,20,3,1.45,1,1.3409,1,2,"S1",3,1
"720",40,20,45,2.85,0,2.371,1,1,"S1",3,1
"721",41,20,24,1.65,0,2.1082,2,2,"S1",3,1
"722",42,20,45,1.85,0,2.8581,2,2,"S1",3,1
"723",43,20,7,1.65,1,3.8829,2,1,"S1",3,1
"724",44,20,75,1.65,0,3.0288,1,1,"S1",3,1
"725",45,20,58,2.25,0,2.8333,1,1,"S1",3,1
"726",46,20,7,1.055,0,1.5949,2,2,"S1",3,1
"727",47,20,75,1.25,0,2.2417,2,2,"S1",3,1
"728",48,20,13,2.05,1,5.0359,1,2,"S1",3,1
"729",49,20,32,1.05,0,2.1848,2,2,"S1",3,1
"730",50,20,58,3.45,0,2.7576,1,1,"S1",3,1
"731",51,20,45,1.055,0,1.8902,2,2,"S1",3,1
"732",52,20,3,1.9,1,2.6734,1,2,"S1",3,1
"733",53,20,7,1.35,0,5.5506,1,1,"S1",3,1
"734",54,20,58,3.05,0,3.0089,2,2,"S1",3,1
"735",55,20,32,1.45,0,1.9756,1,1,"S1",3,1
"736",56,20,1,3.05,1,2.7377,1,2,"S1",3,1
"737",57,20,75,1.9,0,2.0069,1,1,"S1",3,1
"738",58,20,24,2.25,0,3.4833,1,1,"S1",3,1
"739",59,20,122,2.05,0,1.7157,1,1,"S1",3,1
"740",60,20,45,1.35,0,4.169,2,2,"S1",3,1
"741",61,20,122,3.85,1,4.0816,2,1,"S1",3,1
"742",62,20,58,1.05,0,1.6451,2,2,"S1",3,1
"743",63,20,58,1.45,0,2.4416,1,1,"S1",3,1
"744",64,20,45,2.25,0,2.4256,1,1,"S1",3,1
"745",65,20,122,1.055,0,1.2881,1,1,"S1",3,1
"746",66,20,24,1.25,0,1.551,1,1,"S1",3,1
"747",67,20,122,1.9,0,1.4385,2,2,"S1",3,1
"748",68,20,58,1.55,0,2.0376,2,2,"S1",3,1
"749",69,20,45,1.55,0,1.3113,1,1,"S1",3,1
"750",70,20,3,2.05,1,0.9405,1,2,"S1",3,1
"751",71,20,3,1.055,0,1.4654,1,1,"S1",3,1
"752",72,20,1,2.85,1,1.5928,1,2,"S1",3,1
"753",73,20,75,2.55,0,3.0056,1,1,"S1",3,1
"754",74,20,32,2.25,0,2.1817,1,1,"S1",3,1
"755",75,20,1,3.85,1,1.3189,1,2,"S1",3,1
"756",76,20,75,1.05,0,1.6702,2,2,"S1",3,1
"757",77,20,1,1.055,1,3.7243,2,1,"S1",3,1
"758",78,20,122,1.15,0,1.698,1,1,"S1",3,1
"759",79,20,32,1.85,0,1.3356,1,1,"S1",3,1
"760",80,20,122,1.45,0,2.1234,2,2,"S1",3,1
"761",81,20,58,1.055,0,2.0858,2,2,"S1",3,1
"762",82,20,1,1.45,1,1.3169,2,1,"S1",3,1
"763",83,20,13,3.45,1,2.7076,1,2,"S1",3,1
"764",84,20,3,1.15,1,1.0743,2,1,"S1",3,1
"765",85,20,122,1.55,0,1.6145,1,1,"S1",3,1
"766",86,20,75,2.05,0,1.8194,2,2,"S1",3,1
"767",87,20,75,1.85,0,2.1407,1,1,"S1",3,1
"768",88,20,122,2.25,0,1.7875,1,1,"S1",3,1
"769",89,20,58,2.05,0,1.6373,1,1,"S1",3,1
"770",90,20,3,2.55,1,1.0963,2,1,"S1",3,1
"771",91,20,58,1.25,0,1.8405,2,2,"S1",3,1
"772",92,20,32,2.55,0,2.4838,2,2,"S1",3,1
"773",93,20,3,2.25,1,1.0029,2,1,"S1",3,1
"774",94,20,13,1.55,1,2.0896,1,2,"S1",3,1
"775",95,20,75,1.55,0,2.7322,1,1,"S1",3,1
"776",96,20,13,1.35,1,8.1162,1,2,"S1",3,1
"777",97,20,7,1.15,1,3.8696,1,2,"S1",3,1
"778",98,20,7,2.55,1,1.1784,1,2,"S1",3,1
"779",99,20,32,1.25,0,1.6735,1,1,"S1",3,1
"780",100,20,3,1.55,1,1.7031,2,1,"S1",3,1
"781",101,20,24,1.45,0,2.3632,2,2,"S1",3,1
"782",102,20,45,2.55,1,3.4595,2,1,"S1",3,1
"783",103,20,7,2.25,1,1.7475,1,2,"S1",3,1
"784",104,20,58,2.85,1,3.4676,1,2,"S1",3,1
"785",105,20,24,1.15,0,3.1687,1,1,"S1",3,1
"786",106,20,58,1.65,0,1.1971,1,1,"S1",3,1
"787",107,20,13,3.05,1,0.9926,1,2,"S1",3,1
"788",108,20,32,3.05,1,2.6618,1,2,"S1",3,1
"789",109,20,24,1.35,0,1.8947,1,1,"S1",3,1
"790",110,20,7,1.85,1,1.0991,2,1,"S1",3,1
"791",111,20,13,1.25,1,4.2594,1,2,"S1",3,1
"792",112,20,45,3.05,1,1.3842,2,1,"S1",3,1
"793",113,20,1,1.85,1,1.3721,1,2,"S1",3,1
"794",114,20,75,1.35,0,1.399,1,1,"S1",3,1
"795",115,20,32,2.05,0,2.8644,2,2,"S1",3,1
"796",116,20,7,2.05,1,3.7686,2,1,"S1",3,1
"797",117,20,122,1.25,0,2.9374,1,1,"S1",3,1
"798",118,20,75,3.85,1,1.8581,1,2,"S1",3,1
"799",119,20,3,3.05,1,3.8861,1,2,"S1",3,1
"800",120,20,58,2.55,1,4.7692,1,2,"S1",3,1
"801",121,20,24,2.85,1,2.2648,1,2,"S1",3,1
"802",122,20,24,1.55,0,1.8525,2,2,"S1",3,1
"803",123,20,24,1.05,0,1.6251,1,1,"S1",3,1
"804",124,20,32,1.9,0,2.2066,2,2,"S1",3,1
"805",125,20,7,3.85,1,1.0458,2,1,"S1",3,1
"806",126,20,1,1.25,1,1.4186,1,2,"S1",3,1
"807",127,20,7,1.9,1,1.1558,2,1,"S1",3,1
"808",128,20,58,3.85,0,4.2299,2,2,"S1",3,1
"809",129,20,1,2.05,1,1.2891,1,2,"S1",3,1
"810",130,20,32,1.15,0,3.8163,2,2,"S1",3,1
"811",131,20,13,3.85,1,0.7535,1,2,"S1",3,1
"812",132,20,13,1.9,1,3.4529,1,2,"S1",3,1
"813",133,20,7,1.55,1,1.3913,2,1,"S1",3,1
"814",134,20,45,1.9,0,2.3958,1,1,"S1",3,1
"815",135,20,7,1.25,1,3.2291,1,2,"S1",3,1
"816",136,20,13,1.85,1,1.4299,2,1,"S1",3,1
"817",137,20,1,1.9,1,0.9959,1,2,"S1",3,1
"818",138,20,7,3.05,1,1.0281,2,1,"S1",3,1
"819",139,20,24,3.85,1,2.6334,2,1,"S1",3,1
"820",140,20,32,1.055,0,2.2814,2,2,"S1",3,1
"821",141,20,122,3.05,0,4.9093,2,2,"S1",3,1
"822",142,20,122,3.45,0,2.3634,2,2,"S1",3,1
"823",143,20,122,1.65,0,1.4303,1,1,"S1",3,1
"824",144,20,3,3.85,1,0.9388,1,2,"S1",3,1
"825",145,20,75,1.45,0,1.6831,2,2,"S1",3,1
"826",146,20,75,1.055,0,1.5246,1,1,"S1",3,1
"827",147,20,45,3.45,0,2.6136,2,2,"S1",3,1
"828",148,20,3,1.35,0,1.2713,2,2,"S1",3,1
"829",149,20,45,1.45,0,4.1578,2,2,"S1",3,1
"830",150,20,24,3.05,1,2.2872,1,2,"S1",3,1
"831",151,20,32,1.55,0,1.8135,1,1,"S1",3,1
"832",152,20,7,1.45,1,2.5286,1,2,"S1",3,1
"833",153,20,3,1.65,1,2.9641,2,1,"S1",3,1
"834",154,20,45,1.65,0,1.6037,1,1,"S1",3,1
"835",155,20,13,1.055,0,1.2819,1,1,"S1",3,1
"836",156,20,75,3.45,0,2.7354,2,2,"S1",3,1
"837",157,20,3,1.25,1,0.9937,2,1,"S1",3,1
"838",158,20,7,3.45,1,1.0682,2,1,"S1",3,1
"839",159,20,45,2.05,0,2.7644,1,1,"S1",3,1
"840",160,20,13,1.15,0,2.1167,1,1,"S1",3,1
"841",161,20,58,1.85,0,2.0392,2,2,"S1",3,1
"842",162,20,3,1.85,1,1.4385,1,2,"S1",3,1
"843",163,20,24,1.055,0,3.5426,1,1,"S1",3,1
"844",164,20,32,2.85,1,3.4965,1,2,"S1",3,1
"845",165,20,24,2.55,1,2.0897,1,2,"S1",3,1
"846",166,20,1,2.55,1,1.3211,2,1,"S1",3,1
"847",167,20,122,2.85,0,1.4708,1,1,"S1",3,1
"848",168,20,13,2.55,1,1.4669,2,1,"S1",3,1
"849",169,20,122,2.55,0,1.588,2,2,"S1",3,1
"850",170,20,32,3.45,1,2.3148,1,2,"S1",3,1
"851",1,20,62,1.47,0,1.5979,1,1,"S2",3,0
"852",2,20,118,1.2,0,1.7548,2,2,"S2",3,0
"853",3,20,23,2.3,0,1.3422,1,1,"S2",3,0
"854",4,20,2,1.47,0,1.7525,1,1,"S2",3,0
"855",5,20,4,2.3,1,1.2393,2,1,"S2",3,0
"856",6,20,23,1.5,0,2.0104,1,1,"S2",3,0
"857",7,20,118,3.1,0,1.4019,1,1,"S2",3,0
"858",8,20,50,1.9,0,2.4216,1,1,"S2",3,0
"859",9,20,4,2.07,1,1.8336,2,1,"S2",3,0
"860",10,20,29,2.3,1,2.2521,2,1,"S2",3,0
"861",11,20,2,2.3,1,1.2934,1,2,"S2",3,0
"862",12,20,62,1.7,0,1.6546,1,1,"S2",3,0
"863",13,20,73,3.5,1,1.8263,1,2,"S2",3,0
"864",14,20,118,1.47,0,1.3754,1,1,"S2",3,0
"865",15,20,14,2.3,0,2.407,2,2,"S2",3,0
"866",16,20,118,1.2,0,1.0198,1,1,"S2",3,0
"867",17,20,6,3.5,1,0.9069,1,2,"S2",3,0
"868",18,20,118,2.3,0,1.0297,1,1,"S2",3,0
"869",19,20,62,1.2,0,1.2734,2,2,"S2",3,0
"870",20,20,50,1.33,0,1.4518,2,2,"S2",3,0
"871",21,20,6,3.8,1,0.7426,1,2,"S2",3,0
"872",22,20,73,3.1,1,1.4647,2,1,"S2",3,0
"873",23,20,118,1.7,0,1.2167,1,1,"S2",3,0
"874",24,20,62,3.5,1,1.3985,1,2,"S2",3,0
"875",25,20,62,1.085,0,1.4578,1,1,"S2",3,0
"876",26,20,4,1.83,1,1.0704,2,1,"S2",3,0
"877",27,20,14,1.2,0,2.0077,1,1,"S2",3,0
"878",28,20,23,1.02,0,2.0029,2,2,"S2",3,0
"879",29,20,14,1.47,1,2.0998,2,1,"S2",3,0
"880",30,20,118,1.5,0,1.3326,2,2,"S2",3,0
"881",31,20,29,1.83,0,2.2786,1,1,"S2",3,0
"882",32,20,2,1.9,1,1.331,1,2,"S2",3,0
"883",33,20,6,1.2,0,2.4524,2,2,"S2",3,0
"884",34,20,23,3.5,1,1.4139,1,2,"S2",3,0
"885",35,20,50,1.02,0,1.4742,1,1,"S2",3,0
"886",36,20,14,1.5,1,1.7891,2,1,"S2",3,0
"887",37,20,23,2.5,1,1.7898,1,2,"S2",3,0
"888",38,20,6,1.9,1,1.9019,1,2,"S2",3,0
"889",39,20,23,3.1,1,2.4619,2,1,"S2",3,0
"890",40,20,4,3.8,1,0.7951,1,2,"S2",3,0
"891",41,20,118,2.5,0,1.0557,1,1,"S2",3,0
"892",42,20,73,1.83,0,2.0745,2,2,"S2",3,0
"893",43,20,23,2.07,1,1.7658,1,2,"S2",3,0
"894",44,20,29,1.9,1,1.9262,1,2,"S2",3,0
"895",45,20,14,3.1,1,1.8768,1,2,"S2",3,0
"896",46,20,14,3.5,1,1.1024,2,1,"S2",3,0
"897",47,20,2,1.33,1,2.0493,2,1,"S2",3,0
"898",48,20,2,2.8,1,1.072,2,1,"S2",3,0
"899",49,20,14,3.8,1,1.2325,1,2,"S2",3,0
"900",50,20,14,1.2,0,2.2616,1,1,"S2",3,0
"901",51,20,23,1.2,0,1.2681,1,1,"S2",3,0
"902",52,20,29,3.5,1,1.7348,2,1,"S2",3,0
"903",53,20,6,3.1,1,1.7449,1,2,"S2",3,0
"904",54,20,62,2.07,0,1.2909,1,1,"S2",3,0
"905",55,20,50,1.7,0,2.5328,1,1,"S2",3,0
"906",56,20,29,2.5,1,2.3669,2,1,"S2",3,0
"907",57,20,118,1.025,0,1.8172,1,1,"S2",3,0
"908",58,20,14,1.025,0,1.4504,2,2,"S2",3,0
"909",59,20,73,1.2,0,1.5045,2,2,"S2",3,0
"910",60,20,29,1.7,1,2.068,1,2,"S2",3,0
"911",61,20,14,2.8,1,1.2326,2,1,"S2",3,0
"912",62,20,73,1.2,0,1.3795,2,2,"S2",3,0
"913",63,20,62,1.5,1,2.6424,1,2,"S2",3,0
"914",64,20,29,2.8,0,1.4521,1,1,"S2",3,0
"915",65,20,4,1.085,0,1.519,2,2,"S2",3,0
"916",66,20,14,2.5,1,0.9269,1,2,"S2",3,0
"917",67,20,4,1.9,1,1.2843,2,1,"S2",3,0
"918",68,20,23,1.33,0,1.4477,2,2,"S2",3,0
"919",69,20,29,2.07,1,2.3599,1,2,"S2",3,0
"920",70,20,14,1.7,1,1.8763,2,1,"S2",3,0
"921",71,20,118,2.8,0,1.8085,2,2,"S2",3,0
"922",72,20,2,2.5,1,1.0121,1,2,"S2",3,0
"923",73,20,29,1.47,0,1.7925,1,1,"S2",3,0
"924",74,20,6,1.7,1,1.2532,1,2,"S2",3,0
"925",75,20,73,2.8,0,1.7043,1,1,"S2",3,0
"926",76,20,118,1.33,0,0.9751,2,2,"S2",3,0
"927",77,20,118,3.8,0,1.9885,1,1,"S2",3,0
"928",78,20,14,1.085,0,2.0172,2,2,"S2",3,0
"929",79,20,14,2.07,1,2.1299,1,2,"S2",3,0
"930",80,20,23,1.08,0,1.9304,1,1,"S2",3,0
"931",81,20,62,1.9,0,2.294,1,1,"S2",3,0
"932",82,20,4,1.2,1,0.8738,1,2,"S2",3,0
"933",83,20,29,1.2,0,2.3283,2,2,"S2",3,0
"934",84,20,50,2.3,0,2.0746,2,2,"S2",3,0
"935",85,20,50,1.08,0,1.1905,1,1,"S2",3,0
"936",86,20,4,1.7,1,1.3184,1,2,"S2",3,0
"937",87,20,14,1.33,0,1.1632,1,1,"S2",3,0
"938",88,20,29,3.8,1,1.5954,2,1,"S2",3,0
"939",89,20,6,2.5,1,1.2502,2,1,"S2",3,0
"940",90,20,50,2.5,1,1.5111,2,1,"S2",3,0
"941",91,20,29,3.1,1,1.6663,1,2,"S2",3,0
"942",92,20,62,2.3,0,2.503,1,1,"S2",3,0
"943",93,20,6,1.2,1,2.0493,1,2,"S2",3,0
"944",94,20,50,1.2,0,1.7419,2,2,"S2",3,0
"945",95,20,73,1.08,0,0.9946,2,2,"S2",3,0
"946",96,20,73,3.8,0,1.6382,1,1,"S2",3,0
"947",97,20,29,1.2,0,1.4753,2,2,"S2",3,0
"948",98,20,4,1.33,0,1.197,1,1,"S2",3,0
"949",99,20,50,1.5,0,1.5283,1,1,"S2",3,0
"950",100,20,2,1.83,1,2.0084,2,1,"S2",3,0
"951",101,20,2,3.5,1,0.7981,1,2,"S2",3,0
"952",102,20,6,2.8,1,1.4259,2,1,"S2",3,0
"953",103,20,50,3.8,1,2.8834,2,1,"S2",3,0
"954",104,20,73,2.3,0,1.7102,2,2,"S2",3,0
"955",105,20,50,1.2,0,1.7663,1,1,"S2",3,0
"956",106,20,2,1.2,1,1.3395,1,2,"S2",3,0
"957",107,20,6,1.08,0,1.1611,2,2,"S2",3,0
"958",108,20,4,1.2,0,1.3664,2,2,"S2",3,0
"959",109,20,73,2.5,0,2.1486,2,2,"S2",3,0
"960",110,20,6,1.47,1,2.6131,2,1,"S2",3,0
"961",111,20,14,1.9,1,2.6674,1,2,"S2",3,0
"962",112,20,62,3.8,1,2.0217,2,1,"S2",3,0
"963",113,20,23,3.8,1,0.8896,1,2,"S2",3,0
"964",114,20,118,1.9,0,1.2802,1,1,"S2",3,0
"965",115,20,73,1.02,0,1.4796,2,2,"S2",3,0
"966",116,20,62,1.025,0,1.2687,1,1,"S2",3,0
"967",117,20,73,1.7,0,1.1193,1,1,"S2",3,0
"968",118,20,118,3.5,1,2.0619,1,2,"S2",3,0
"969",119,20,50,3.5,1,1.7003,2,1,"S2",3,0
"970",120,20,6,2.3,1,0.8557,1,2,"S2",3,0
"971",121,20,4,3.1,1,1.0874,2,1,"S2",3,0
"972",122,20,50,2.07,0,1.7074,2,2,"S2",3,0
"973",123,20,4,1.47,1,1.1149,2,1,"S2",3,0
"974",124,20,50,1.47,0,1.7559,1,1,"S2",3,0
"975",125,20,73,1.9,0,1.6528,1,1,"S2",3,0
"976",126,20,29,1.025,0,1.066,1,1,"S2",3,0
"977",127,20,73,2.07,0,1.3546,1,1,"S2",3,0
"978",128,20,2,1.5,1,1.1958,1,2,"S2",3,0
"979",129,20,14,1.83,0,1.7285,2,2,"S2",3,0
"980",130,20,6,1.5,1,2.2996,2,1,"S2",3,0
"981",131,20,62,1.2,0,1.5459,2,2,"S2",3,0
"982",132,20,118,1.085,0,0.8626,2,2,"S2",3,0
"983",133,20,62,1.83,0,1.1806,2,2,"S2",3,0
"984",134,20,2,1.7,1,1.1349,2,1,"S2",3,0
"985",135,20,6,1.02,0,1.5535,1,1,"S2",3,0
"986",136,20,62,2.8,0,2.5593,2,2,"S2",3,0
"987",137,20,2,1.2,1,2.1681,1,2,"S2",3,0
"988",138,20,62,3.1,1,2.3289,2,1,"S2",3,0
"989",139,20,4,1.5,1,1.203,1,2,"S2",3,0
"990",140,20,2,1.02,0,0.9868,2,2,"S2",3,0
"991",141,20,4,1.025,0,1.0921,1,1,"S2",3,0
"992",142,20,2,2.07,1,1.1377,1,2,"S2",3,0
"993",143,20,23,1.9,0,2.0479,2,2,"S2",3,0
"994",144,20,73,1.47,0,1.4235,1,1,"S2",3,0
"995",145,20,4,2.5,1,1.1615,2,1,"S2",3,0
"996",146,20,2,3.1,1,0.8555,2,1,"S2",3,0
"997",147,20,118,1.83,0,1.0954,2,2,"S2",3,0
"998",148,20,2,1.08,0,1.4098,1,1,"S2",3,0
"999",149,20,23,1.83,1,2.4685,1,2,"S2",3,0
"1000",150,20,2,3.8,1,0.7952,1,2,"S2",3,0
"1001",151,20,29,1.5,1,2.2574,2,1,"S2",3,0
"1002",152,20,62,1.33,0,1.1093,2,2,"S2",3,0
"1003",153,20,23,1.7,1,3.6184,2,1,"S2",3,0
"1004",154,20,23,2.8,0,0.9166,1,1,"S2",3,0
"1005",155,20,6,1.33,1,2.214,1,2,"S2",3,0
"1006",156,20,62,2.5,1,1.3057,1,2,"S2",3,0
"1007",157,20,50,2.8,1,1.2305,1,2,"S2",3,0
"1008",158,20,73,1.5,0,1.2499,1,1,"S2",3,0
"1009",159,20,29,1.085,0,1.188,2,2,"S2",3,0
"1010",160,20,50,3.1,1,1.58,1,2,"S2",3,0
"1011",161,20,4,2.8,1,0.9617,1,2,"S2",3,0
"1012",162,20,29,1.33,0,1.1104,1,1,"S2",3,0
"1013",163,20,4,3.5,1,0.7432,1,2,"S2",3,0
"1014",164,20,50,1.83,0,1.2221,2,2,"S2",3,0
"1015",165,20,118,2.07,0,0.9899,1,1,"S2",3,0
"1016",166,20,23,1.2,0,1.802,2,2,"S2",3,0
"1017",167,20,73,1.33,0,0.9626,2,2,"S2",3,0
"1018",168,20,6,1.83,1,1.5594,2,1,"S2",3,0
"1019",169,20,23,1.47,0,1.0528,1,1,"S2",3,0
"1020",170,20,6,2.07,1,0.9133,1,2,"S2",3,0
"1021",1,20,45,3.85,1,4.232,1,2,"S1",4,0
"1022",2,20,24,3.05,1,2.5408,2,1,"S1",4,0
"1023",3,20,24,3.45,1,2.1979,1,2,"S1",4,0
"1024",4,20,45,1.45,0,3.7607,2,2,"S1",4,0
"1025",5,20,45,2.25,0,2.4163,1,1,"S1",4,0
"1026",6,20,1,2.85,1,4.4866,2,1,"S1",4,0
"1027",7,20,24,2.25,1,3.1271,2,1,"S1",4,0
"1028",8,20,13,1.45,0,5.4236,2,2,"S1",4,0
"1029",9,20,13,1.05,0,3.248,1,1,"S1",4,0
"1030",10,20,58,2.55,1,2.6222,1,2,"S1",4,0
"1031",11,20,75,2.55,1,2.7509,2,1,"S1",4,0
"1032",12,20,45,1.9,1,2.6418,1,2,"S1",4,0
"1033",13,20,122,1.45,0,4.457,1,1,"S1",4,0
"1034",14,20,7,3.45,1,2.4691,1,2,"S1",4,0
"1035",15,20,7,1.05,0,3.1904,2,2,"S1",4,0
"1036",16,20,45,1.25,0,3.6582,2,2,"S1",4,0
"1037",17,20,24,2.05,1,2.4967,1,2,"S1",4,0
"1038",18,20,122,1.9,1,4.6967,1,2,"S1",4,0
"1039",19,20,7,1.055,0,2.7058,2,2,"S1",4,0
"1040",20,20,3,3.45,1,2.813,2,1,"S1",4,0
"1041",21,20,24,1.55,1,3.3592,1,2,"S1",4,0
"1042",22,20,7,1.15,0,2.2415,1,1,"S1",4,0
"1043",23,20,32,2.05,1,2.1629,1,2,"S1",4,0
"1044",24,20,122,1.65,0,3.2473,1,1,"S1",4,0
"1045",25,20,32,1.65,1,2.9703,2,1,"S1",4,0
"1046",26,20,45,2.05,1,2.6308,1,2,"S1",4,0
"1047",27,20,13,1.055,0,2.5192,1,1,"S1",4,0
"1048",28,20,75,1.05,0,2.8801,1,1,"S1",4,0
"1049",29,20,75,1.055,0,2.6343,1,1,"S1",4,0
"1050",30,20,1,1.15,0,2.9425,1,1,"S1",4,0
"1051",31,20,1,1.05,0,3.0808,1,1,"S1",4,0
"1052",32,20,7,3.05,1,2.0824,2,1,"S1",4,0
"1053",33,20,1,1.055,0,2.3315,1,1,"S1",4,0
"1054",34,20,3,1.85,1,2.1064,2,1,"S1",4,0
"1055",35,20,32,1.85,1,3.4686,1,2,"S1",4,0
"1056",36,20,7,2.05,1,2.3703,2,1,"S1",4,0
"1057",37,20,7,1.45,1,3.8236,1,2,"S1",4,0
"1058",38,20,3,2.25,1,1.6518,1,2,"S1",4,0
"1059",39,20,1,3.05,1,1.8168,2,1,"S1",4,0
"1060",40,20,24,3.85,1,1.8932,2,1,"S1",4,0
"1061",41,20,13,1.25,0,3.7487,2,2,"S1",4,0
"1062",42,20,13,1.9,1,3.9921,2,1,"S1",4,0
"1063",43,20,24,1.65,1,2.5685,1,2,"S1",4,0
"1064",44,20,45,2.85,1,1.9994,1,2,"S1",4,0
"1065",45,20,24,1.05,0,2.82,2,2,"S1",4,0
"1066",46,20,1,1.85,1,1.6351,2,1,"S1",4,0
"1067",47,20,75,3.45,1,2.613,2,1,"S1",4,0
"1068",48,20,122,1.55,0,3.5203,2,2,"S1",4,0
"1069",49,20,58,1.55,1,4.4219,1,2,"S1",4,0
"1070",50,20,122,1.05,0,1.6859,1,1,"S1",4,0
"1071",51,20,58,2.85,1,1.6921,1,2,"S1",4,0
"1072",52,20,32,1.15,0,2.0845,1,1,"S1",4,0
"1073",53,20,58,1.65,1,3.8831,2,1,"S1",4,0
"1074",54,20,58,1.85,1,2.2556,2,1,"S1",4,0
"1075",55,20,24,1.45,0,3.6148,2,2,"S1",4,0
"1076",56,20,32,3.05,1,1.6082,2,1,"S1",4,0
"1077",57,20,13,2.25,1,1.996,1,2,"S1",4,0
"1078",58,20,75,2.05,1,2.0228,2,1,"S1",4,0
"1079",59,20,75,1.65,0,5.0492,2,2,"S1",4,0
"1080",60,20,3,3.85,1,2.1538,1,2,"S1",4,0
"1081",61,20,13,2.05,1,5.5994,1,2,"S1",4,0
"1082",62,20,1,2.55,1,2.1228,1,2,"S1",4,0
"1083",63,20,13,1.65,1,2.5214,2,1,"S1",4,0
"1084",64,20,3,3.05,1,1.7215,1,2,"S1",4,0
"1085",65,20,3,2.55,1,1.487,2,1,"S1",4,0
"1086",66,20,13,1.15,0,2.5913,2,2,"S1",4,0
"1087",67,20,122,2.85,1,2.3702,1,2,"S1",4,0
"1088",68,20,32,2.55,1,1.9027,1,2,"S1",4,0
"1089",69,20,3,1.05,0,1.5972,1,1,"S1",4,0
"1090",70,20,7,1.55,1,2.9465,2,1,"S1",4,0
"1091",71,20,75,3.85,1,2.2733,1,2,"S1",4,0
"1092",72,20,24,2.55,1,2.5031,2,1,"S1",4,0
"1093",73,20,122,2.25,1,2.8509,2,1,"S1",4,0
"1094",74,20,58,3.05,1,2.3054,1,2,"S1",4,0
"1095",75,20,32,1.55,0,2.2048,1,1,"S1",4,0
"1096",76,20,122,1.15,0,2.5885,2,2,"S1",4,0
"1097",77,20,24,1.055,0,2.9486,1,1,"S1",4,0
"1098",78,20,7,2.55,1,3.0668,1,2,"S1",4,0
"1099",79,20,122,2.55,1,2.0387,2,1,"S1",4,0
"1100",80,20,58,1.05,0,2.4648,1,1,"S1",4,0
"1101",81,20,122,1.055,0,2.0146,1,1,"S1",4,0
"1102",82,20,75,1.85,0,3.1776,2,2,"S1",4,0
"1103",83,20,1,3.85,1,3.4639,1,2,"S1",4,0
"1104",84,20,1,1.45,1,2.252,2,1,"S1",4,0
"1105",85,20,3,1.9,1,1.8213,2,1,"S1",4,0
"1106",86,20,45,1.65,1,2.4941,1,2,"S1",4,0
"1107",87,20,7,1.35,1,2.7847,1,2,"S1",4,0
"1108",88,20,58,2.05,1,1.9425,2,1,"S1",4,0
"1109",89,20,58,1.25,0,3.5342,1,1,"S1",4,0
"1110",90,20,122,1.85,0,2.6002,1,1,"S1",4,0
"1111",91,20,24,1.15,0,2.41,1,1,"S1",4,0
"1112",92,20,1,3.45,1,2.1672,1,2,"S1",4,0
"1113",93,20,32,3.45,1,2.4627,1,2,"S1",4,0
"1114",94,20,7,1.85,1,2.4299,2,1,"S1",4,0
"1115",95,20,45,2.55,1,2.9904,1,2,"S1",4,0
"1116",96,20,32,1.05,0,2.7474,1,1,"S1",4,0
"1117",97,20,7,2.85,1,2.2299,2,1,"S1",4,0
"1118",98,20,75,1.15,0,2.0241,2,2,"S1",4,0
"1119",99,20,75,1.9,1,2.6344,2,1,"S1",4,0
"1120",100,20,75,2.25,1,2.2681,1,2,"S1",4,0
"1121",101,20,75,1.35,0,2.4791,2,2,"S1",4,0
"1122",102,20,32,2.25,1,1.7855,1,2,"S1",4,0
"1123",103,20,1,1.55,1,2.7866,1,2,"S1",4,0
"1124",104,20,13,1.85,1,4.5402,1,2,"S1",4,0
"1125",105,20,1,1.35,1,1.9013,2,1,"S1",4,0
"1126",106,20,7,1.65,1,1.8674,2,1,"S1",4,0
"1127",107,20,3,1.25,1,2.8724,1,2,"S1",4,0
"1128",108,20,13,2.85,1,1.7313,2,1,"S1",4,0
"1129",109,20,24,1.25,0,4.2913,1,1,"S1",4,0
"1130",110,20,24,1.35,0,3.3131,1,1,"S1",4,0
"1131",111,20,1,1.9,1,2.482,1,2,"S1",4,0
"1132",112,20,32,1.055,0,2.8262,1,1,"S1",4,0
"1133",113,20,24,1.85,0,3.5462,2,2,"S1",4,0
"1134",114,20,1,1.65,1,2.3927,2,1,"S1",4,0
"1135",115,20,3,1.15,0,4.2251,2,2,"S1",4,0
"1136",116,20,32,1.9,1,3.1348,2,1,"S1",4,0
"1137",117,20,7,1.25,0,3.1118,2,2,"S1",4,0
"1138",118,20,75,2.85,1,2.2056,1,2,"S1",4,0
"1139",119,20,122,3.85,1,2.255,2,1,"S1",4,0
"1140",120,20,122,1.25,0,3.9328,1,1,"S1",4,0
"1141",121,20,3,2.05,1,2.6381,1,2,"S1",4,0
"1142",122,20,24,1.9,1,1.8451,2,1,"S1",4,0
"1143",123,20,3,1.35,1,4.1476,2,1,"S1",4,0
"1144",124,20,32,2.85,1,4.8753,1,2,"S1",4,0
"1145",125,20,58,3.45,1,4.1301,1,2,"S1",4,0
"1146",126,20,58,1.9,1,3.7578,1,2,"S1",4,0
"1147",127,20,45,1.05,0,5.6492,2,2,"S1",4,0
"1148",128,20,45,1.15,0,2.5309,1,1,"S1",4,0
"1149",129,20,45,1.35,0,3.1296,1,1,"S1",4,0
"1150",130,20,122,1.35,0,2.352,2,2,"S1",4,0
"1151",131,20,122,2.05,0,2.9326,1,1,"S1",4,0
"1152",132,20,13,1.35,1,2.213,2,1,"S1",4,0
"1153",133,20,32,1.45,0,3.2933,2,2,"S1",4,0
"1154",134,20,58,1.15,0,3.625,1,1,"S1",4,0
"1155",135,20,45,3.05,1,2.0215,1,2,"S1",4,0
"1156",136,20,13,3.05,1,1.8882,1,2,"S1",4,0
"1157",137,20,1,2.25,1,2.3115,2,1,"S1",4,0
"1158",138,20,7,3.85,1,1.7256,1,2,"S1",4,0
"1159",139,20,3,1.45,1,4.2188,1,2,"S1",4,0
"1160",140,20,58,2.25,1,2.5563,1,2,"S1",4,0
"1161",141,20,13,2.55,1,1.6052,1,2,"S1",4,0
"1162",142,20,3,2.85,1,1.7448,1,2,"S1",4,0
"1163",143,20,75,3.05,1,1.9821,2,1,"S1",4,0
"1164",144,20,58,1.35,0,2.358,2,2,"S1",4,0
"1165",145,20,13,3.45,1,1.7346,2,1,"S1",4,0
"1166",146,20,75,1.45,0,3.8216,1,1,"S1",4,0
"1167",147,20,1,2.05,1,2.3743,1,2,"S1",4,0
"1168",148,20,45,1.85,1,2.6126,1,2,"S1",4,0
"1169",149,20,58,3.85,1,1.6188,2,1,"S1",4,0
"1170",150,20,13,1.55,1,2.5732,2,1,"S1",4,0
"1171",151,20,24,2.85,1,1.5907,2,1,"S1",4,0
"1172",152,20,58,1.055,0,2.0347,1,1,"S1",4,0
"1173",153,20,75,1.55,0,1.8102,1,1,"S1",4,0
"1174",154,20,122,3.05,1,2.3076,1,2,"S1",4,0
"1175",155,20,13,3.85,1,2.1183,2,1,"S1",4,0
"1176",156,20,32,1.25,0,2.3269,2,2,"S1",4,0
"1177",157,20,7,2.25,1,1.5008,2,1,"S1",4,0
"1178",158,20,3,1.55,1,1.8715,2,1,"S1",4,0
"1179",159,20,75,1.25,0,2.3928,1,1,"S1",4,0
"1180",160,20,45,1.55,0,2.9678,2,2,"S1",4,0
"1181",161,20,32,1.35,0,2.2812,1,1,"S1",4,0
"1182",162,20,3,1.65,1,1.4761,2,1,"S1",4,0
"1183",163,20,122,3.45,1,2.0836,1,2,"S1",4,0
"1184",164,20,45,1.055,0,2.4778,2,2,"S1",4,0
"1185",165,20,58,1.45,0,2.4765,2,2,"S1",4,0
"1186",166,20,32,3.85,1,2.0729,1,2,"S1",4,0
"1187",167,20,3,1.055,0,1.6452,2,2,"S1",4,0
"1188",168,20,7,1.9,1,1.3019,1,2,"S1",4,0
"1189",169,20,1,1.25,1,1.5908,2,1,"S1",4,0
"1190",170,20,45,3.45,1,1.3972,1,2,"S1",4,0
"1191",1,20,6,1.2,1,3.5337,1,2,"S2",4,1
"1192",2,20,6,1.2,1,2.1739,2,1,"S2",4,1
"1193",3,20,50,3.1,1,3.2969,1,2,"S2",4,1
"1194",4,20,29,1.47,1,2.7623,2,1,"S2",4,1
"1195",5,20,29,1.9,1,2.616,2,1,"S2",4,1
"1196",6,20,2,1.08,1,2.4246,1,2,"S2",4,1
"1197",7,20,6,3.5,1,2.3908,1,2,"S2",4,1
"1198",8,20,2,1.02,0,2.305,1,1,"S2",4,1
"1199",9,20,23,1.2,0,2.2226,1,1,"S2",4,1
"1200",10,20,4,1.2,0,1.7273,1,1,"S2",4,1
"1201",11,20,14,1.2,0,2.8976,1,1,"S2",4,1
"1202",12,20,62,2.07,1,2.8173,1,2,"S2",4,1
"1203",13,20,2,1.33,1,2.2951,2,1,"S2",4,1
"1204",14,20,2,1.9,1,2.6919,2,1,"S2",4,1
"1205",15,20,50,1.2,0,2.8599,2,2,"S2",4,1
"1206",16,20,73,1.33,0,3.1572,1,1,"S2",4,1
"1207",17,20,73,1.5,0,2.5125,2,2,"S2",4,1
"1208",18,20,23,1.9,1,2.2476,1,2,"S2",4,1
"1209",19,20,4,1.7,1,1.9997,2,1,"S2",4,1
"1210",20,20,23,3.8,1,1.9923,1,2,"S2",4,1
"1211",21,20,23,2.07,1,2.209,1,2,"S2",4,1
"1212",22,20,14,1.025,0,1.5516,1,1,"S2",4,1
"1213",23,20,6,3.8,1,1.8228,2,1,"S2",4,1
"1214",24,20,23,1.2,0,4.4542,2,2,"S2",4,1
"1215",25,20,50,1.08,0,2.6424,1,1,"S2",4,1
"1216",26,20,6,2.07,1,1.551,2,1,"S2",4,1
"1217",27,20,4,3.1,1,1.347,1,2,"S2",4,1
"1218",28,20,14,2.3,1,2.3055,2,1,"S2",4,1
"1219",29,20,118,3.8,1,1.8206,1,2,"S2",4,1
"1220",30,20,62,2.8,1,3.1919,2,1,"S2",4,1
"1221",31,20,6,1.5,1,1.9343,1,2,"S2",4,1
"1222",32,20,2,2.07,1,1.7353,2,1,"S2",4,1
"1223",33,20,2,1.2,0,1.8234,1,1,"S2",4,1
"1224",34,20,6,2.8,1,1.2094,2,1,"S2",4,1
"1225",35,20,29,1.7,1,3.2528,1,2,"S2",4,1
"1226",36,20,23,2.8,1,1.0244,1,2,"S2",4,1
"1227",37,20,73,2.07,0,3.1017,2,2,"S2",4,1
"1228",38,20,4,2.3,1,1.1935,1,2,"S2",4,1
"1229",39,20,62,1.2,0,3.1936,1,1,"S2",4,1
"1230",40,20,4,1.2,0,2.5514,1,1,"S2",4,1
"1231",41,20,73,1.08,0,2.3113,1,1,"S2",4,1
"1232",42,20,73,2.5,1,2.3924,2,1,"S2",4,1
"1233",43,20,4,1.085,0,1.8892,2,2,"S2",4,1
"1234",44,20,50,2.07,0,3.0352,2,2,"S2",4,1
"1235",45,20,4,3.8,1,2.194,1,2,"S2",4,1
"1236",46,20,62,1.33,0,1.374,1,1,"S2",4,1
"1237",47,20,62,1.47,0,1.773,1,1,"S2",4,1
"1238",48,20,50,1.2,0,2.7749,1,1,"S2",4,1
"1239",49,20,62,3.5,1,1.8675,2,1,"S2",4,1
"1240",50,20,118,1.7,0,1.6401,2,2,"S2",4,1
"1241",51,20,6,1.02,0,1.773,1,1,"S2",4,1
"1242",52,20,2,1.7,1,1.7793,2,1,"S2",4,1
"1243",53,20,73,3.5,1,1.8252,1,2,"S2",4,1
"1244",54,20,29,2.5,1,2.3678,1,2,"S2",4,1
"1245",55,20,14,2.8,1,1.9397,2,1,"S2",4,1
"1246",56,20,14,1.33,0,1.4765,1,1,"S2",4,1
"1247",57,20,50,3.5,1,1.9745,2,1,"S2",4,1
"1248",58,20,118,1.5,0,1.9387,1,1,"S2",4,1
"1249",59,20,62,1.83,1,2.8534,2,1,"S2",4,1
"1250",60,20,14,1.47,0,2.7983,1,1,"S2",4,1
"1251",61,20,14,1.085,0,2.3024,1,1,"S2",4,1
"1252",62,20,4,1.83,0,2.3107,2,2,"S2",4,1
"1253",63,20,62,1.2,0,3.4502,1,1,"S2",4,1
"1254",64,20,4,1.5,1,3.9731,2,1,"S2",4,1
"1255",65,20,23,1.7,1,3.6425,1,2,"S2",4,1
"1256",66,20,50,2.3,0,5.4658,2,2,"S2",4,1
"1257",67,20,29,1.5,0,2.4115,2,2,"S2",4,1
"1258",68,20,14,2.07,1,2.2502,1,2,"S2",4,1
"1259",69,20,62,2.3,1,1.5753,2,1,"S2",4,1
"1260",70,20,14,1.9,1,4.3531,1,2,"S2",4,1
"1261",71,20,14,3.8,1,2.1876,1,2,"S2",4,1
"1262",72,20,73,1.7,1,4.1594,2,1,"S2",4,1
"1263",73,20,2,2.8,1,1.4989,2,1,"S2",4,1
"1264",74,20,118,2.5,1,4.5124,2,1,"S2",4,1
"1265",75,20,14,2.5,1,3.5974,1,2,"S2",4,1
"1266",76,20,6,1.33,0,2.4255,2,2,"S2",4,1
"1267",77,20,118,1.2,0,1.2577,2,2,"S2",4,1
"1268",78,20,118,3.1,1,2.7254,2,1,"S2",4,1
"1269",79,20,118,2.3,1,3.0851,1,2,"S2",4,1
"1270",80,20,14,1.7,1,1.7321,2,1,"S2",4,1
"1271",81,20,62,1.7,0,1.7805,1,1,"S2",4,1
"1272",82,20,6,3.1,1,1.3137,2,1,"S2",4,1
"1273",83,20,2,2.5,1,1.3652,1,2,"S2",4,1
"1274",84,20,14,3.1,1,1.6597,2,1,"S2",4,1
"1275",85,20,62,1.5,0,3.0314,1,1,"S2",4,1
"1276",86,20,4,1.47,1,2.0081,1,2,"S2",4,1
"1277",87,20,62,3.8,1,1.4233,2,1,"S2",4,1
"1278",88,20,50,1.7,0,3.0602,2,2,"S2",4,1
"1279",89,20,118,1.47,0,4.2114,1,1,"S2",4,1
"1280",90,20,50,3.8,1,3.326,1,2,"S2",4,1
"1281",91,20,4,1.025,0,2.3508,2,2,"S2",4,1
"1282",92,20,23,2.5,1,1.7042,1,2,"S2",4,1
"1283",93,20,23,1.33,0,2.0317,1,1,"S2",4,1
"1284",94,20,23,1.08,0,2.0431,1,1,"S2",4,1
"1285",95,20,50,1.02,0,2.1737,1,1,"S2",4,1
"1286",96,20,4,1.9,1,2.0107,1,2,"S2",4,1
"1287",97,20,73,1.83,0,1.7844,1,1,"S2",4,1
"1288",98,20,50,1.33,0,2.3529,2,2,"S2",4,1
"1289",99,20,29,2.3,1,2.8939,2,1,"S2",4,1
"1290",100,20,14,3.5,1,1.2244,1,2,"S2",4,1
"1291",101,20,29,1.83,1,2.3294,2,1,"S2",4,1
"1292",102,20,50,2.8,1,1.4208,1,2,"S2",4,1
"1293",103,20,118,1.2,0,1.5067,1,1,"S2",4,1
"1294",104,20,29,2.07,1,2.7291,1,2,"S2",4,1
"1295",105,20,118,1.33,0,1.6595,2,2,"S2",4,1
"1296",106,20,2,2.3,1,1.9681,1,2,"S2",4,1
"1297",107,20,73,2.3,0,3.1872,2,2,"S2",4,1
"1298",108,20,73,1.2,0,3.7146,2,2,"S2",4,1
"1299",109,20,23,3.1,1,1.6483,2,1,"S2",4,1
"1300",110,20,73,2.8,0,2.4295,2,2,"S2",4,1
"1301",111,20,62,2.5,1,1.7769,1,2,"S2",4,1
"1302",112,20,29,3.8,1,1.1898,1,2,"S2",4,1
"1303",113,20,62,1.9,1,2.1402,1,2,"S2",4,1
"1304",114,20,118,1.83,0,2.1492,2,2,"S2",4,1
"1305",115,20,14,1.5,1,2.6679,2,1,"S2",4,1
"1306",116,20,2,3.5,1,1.4744,1,2,"S2",4,1
"1307",117,20,6,1.47,1,3.3916,2,1,"S2",4,1
"1308",118,20,62,1.025,0,1.3791,1,1,"S2",4,1
"1309",119,20,4,3.5,1,1.1404,1,2,"S2",4,1
"1310",120,20,2,1.47,1,1.6014,2,1,"S2",4,1
"1311",121,20,73,1.02,0,1.2359,2,2,"S2",4,1
"1312",122,20,29,1.33,0,1.904,2,2,"S2",4,1
"1313",123,20,4,2.8,1,1.1942,2,1,"S2",4,1
"1314",124,20,4,1.33,0,1.2567,2,2,"S2",4,1
"1315",125,20,23,1.02,0,2.2591,2,2,"S2",4,1
"1316",126,20,73,1.47,0,2.2983,1,1,"S2",4,1
"1317",127,20,29,1.025,0,1.4229,2,2,"S2",4,1
"1318",128,20,2,1.5,1,1.0678,1,2,"S2",4,1
"1319",129,20,73,3.8,1,1.6351,2,1,"S2",4,1
"1320",130,20,29,3.5,1,1.0469,1,2,"S2",4,1
"1321",131,20,50,1.9,1,3.367,2,1,"S2",4,1
"1322",132,20,23,1.47,0,1.0708,1,1,"S2",4,1
"1323",133,20,14,1.2,0,1.5636,2,2,"S2",4,1
"1324",134,20,4,2.07,1,1.8147,2,1,"S2",4,1
"1325",135,20,6,1.9,1,2.4617,2,1,"S2",4,1
"1326",136,20,23,2.3,1,1.2497,1,2,"S2",4,1
"1327",137,20,29,1.085,0,1.3633,2,2,"S2",4,1
"1328",138,20,118,1.085,0,1.7753,1,1,"S2",4,1
"1329",139,20,6,1.83,1,1.8426,1,2,"S2",4,1
"1330",140,20,23,3.5,1,2.6875,1,2,"S2",4,1
"1331",141,20,6,2.5,1,1.1813,2,1,"S2",4,1
"1332",142,20,73,1.9,0,3.1623,2,2,"S2",4,1
"1333",143,20,29,1.2,0,2.0455,1,1,"S2",4,1
"1334",144,20,73,3.1,1,1.1767,2,1,"S2",4,1
"1335",145,20,118,1.9,0,1.529,1,1,"S2",4,1
"1336",146,20,6,1.08,0,1.0478,1,1,"S2",4,1
"1337",147,20,23,1.83,0,1.8864,2,2,"S2",4,1
"1338",148,20,4,2.5,1,2.656,1,2,"S2",4,1
"1339",149,20,118,3.5,1,2.2431,2,1,"S2",4,1
"1340",150,20,29,1.2,0,1.5262,1,1,"S2",4,1
"1341",151,20,50,1.47,0,1.6005,2,2,"S2",4,1
"1342",152,20,50,2.5,1,1.5959,1,2,"S2",4,1
"1343",153,20,2,3.8,1,1.2239,1,2,"S2",4,1
"1344",154,20,2,1.2,1,1.9949,1,2,"S2",4,1
"1345",155,20,23,1.5,0,1.5598,1,1,"S2",4,1
"1346",156,20,14,1.83,1,1.5642,2,1,"S2",4,1
"1347",157,20,118,2.8,1,2.4345,2,1,"S2",4,1
"1348",158,20,62,3.1,1,1.1819,1,2,"S2",4,1
"1349",159,20,6,2.3,1,1.9176,1,2,"S2",4,1
"1350",160,20,50,1.83,0,2.7416,2,2,"S2",4,1
"1351",161,20,118,2.07,0,1.4963,2,2,"S2",4,1
"1352",162,20,29,2.8,1,1.0896,1,2,"S2",4,1
"1353",163,20,50,1.5,0,3.4017,2,2,"S2",4,1
"1354",164,20,62,1.085,0,1.2725,1,1,"S2",4,1
"1355",165,20,6,1.7,1,1.655,1,2,"S2",4,1
"1356",166,20,73,1.2,0,1.6143,1,1,"S2",4,1
"1357",167,20,29,3.1,1,2.6208,2,1,"S2",4,1
"1358",168,20,118,1.025,0,1.355,1,1,"S2",4,1
"1359",169,20,2,3.1,1,1.1729,1,2,"S2",4,1
"1360",170,20,2,1.83,1,2.2811,1,2,"S2",4,1
"1361",1,20,58,1.65,0,1.7945,1,1,"S1",5,1
"1362",2,20,58,1.85,0,1.2265,2,2,"S1",5,1
"1363",3,20,75,1.65,0,0.9091,2,2,"S1",5,1
"1364",4,20,32,1.35,0,1.4061,1,1,"S1",5,1
"1365",5,20,1,1.85,1,1.0471,1,2,"S1",5,1
"1366",6,20,122,1.35,0,0.827,2,2,"S1",5,1
"1367",7,20,122,1.55,0,1.01,1,1,"S1",5,1
"1368",8,20,45,1.15,0,0.9573,1,1,"S1",5,1
"1369",9,20,45,2.55,0,0.9237,1,1,"S1",5,1
"1370",10,20,58,2.05,1,1.4812,1,2,"S1",5,1
"1371",11,20,1,1.25,1,1.2239,2,1,"S1",5,1
"1372",12,20,24,2.85,1,1.8873,2,1,"S1",5,1
"1373",13,20,75,1.45,0,0.862,1,1,"S1",5,1
"1374",14,20,75,1.05,0,0.972,1,1,"S1",5,1
"1375",15,20,1,1.05,0,0.75,1,1,"S1",5,1
"1376",16,20,7,1.9,1,1.5172,1,2,"S1",5,1
"1377",17,20,3,3.85,1,0.7824,1,2,"S1",5,1
"1378",18,20,13,3.45,1,0.9392,1,2,"S1",5,1
"1379",19,20,24,1.05,0,1.015,2,2,"S1",5,1
"1380",20,20,13,3.05,1,0.9906,2,1,"S1",5,1
"1381",21,20,32,1.55,1,0.9621,2,1,"S1",5,1
"1382",22,20,24,1.9,1,1.1183,2,1,"S1",5,1
"1383",23,20,7,2.55,1,1.0987,1,2,"S1",5,1
"1384",24,20,3,1.45,1,0.9008,2,1,"S1",5,1
"1385",25,20,75,1.25,0,1.1613,1,1,"S1",5,1
"1386",26,20,32,2.85,1,0.8408,2,1,"S1",5,1
"1387",27,20,1,2.25,1,0.9954,1,2,"S1",5,1
"1388",28,20,7,1.05,0,0.7685,1,1,"S1",5,1
"1389",29,20,32,2.55,1,1.105,1,2,"S1",5,1
"1390",30,20,24,3.85,1,1.3855,2,1,"S1",5,1
"1391",31,20,58,2.55,0,1.8354,2,2,"S1",5,1
"1392",32,20,7,3.45,1,0.7189,1,2,"S1",5,1
"1393",33,20,122,1.65,0,1.3625,2,2,"S1",5,1
"1394",34,20,58,1.25,0,1.1512,1,1,"S1",5,1
"1395",35,20,32,1.85,1,1.7226,2,1,"S1",5,1
"1396",36,20,32,2.05,1,1.521,2,1,"S1",5,1
"1397",37,20,58,2.25,0,1.206,2,2,"S1",5,1
"1398",38,20,13,1.55,1,1.5426,2,1,"S1",5,1
"1399",39,20,122,1.05,0,1.0203,1,1,"S1",5,1
"1400",40,20,24,1.85,1,1.1989,2,1,"S1",5,1
"1401",41,20,122,2.05,0,1.0473,1,1,"S1",5,1
"1402",42,20,3,2.05,1,0.9716,1,2,"S1",5,1
"1403",43,20,32,1.05,0,0.9711,2,2,"S1",5,1
"1404",44,20,32,3.85,1,1.0413,2,1,"S1",5,1
"1405",45,20,3,2.85,1,0.8809,1,2,"S1",5,1
"1406",46,20,122,1.15,0,1.2913,1,1,"S1",5,1
"1407",47,20,7,1.15,1,0.9613,2,1,"S1",5,1
"1408",48,20,32,1.15,0,0.9797,2,2,"S1",5,1
"1409",49,20,75,3.05,0,0.9808,1,1,"S1",5,1
"1410",50,20,45,1.05,0,1.0745,1,1,"S1",5,1
"1411",51,20,45,2.85,1,1.8892,1,2,"S1",5,1
"1412",52,20,32,1.9,0,1.9076,1,1,"S1",5,1
"1413",53,20,13,3.85,1,0.7874,2,1,"S1",5,1
"1414",54,20,45,1.055,0,1.0021,1,1,"S1",5,1
"1415",55,20,32,1.65,0,1.7482,1,1,"S1",5,1
"1416",56,20,32,1.45,0,1.4371,2,2,"S1",5,1
"1417",57,20,7,1.65,1,0.9547,1,2,"S1",5,1
"1418",58,20,24,3.45,1,1.5131,1,2,"S1",5,1
"1419",59,20,13,1.35,0,1.0641,2,2,"S1",5,1
"1420",60,20,1,3.05,1,0.984,2,1,"S1",5,1
"1421",61,20,45,1.45,0,5.9321,1,1,"S1",5,1
"1422",62,20,13,1.25,0,2.2239,2,2,"S1",5,1
"1423",63,20,122,3.45,0,1.5886,2,2,"S1",5,1
"1424",64,20,45,3.45,0,1.0391,2,2,"S1",5,1
"1425",65,20,32,3.05,1,1.5934,1,2,"S1",5,1
"1426",66,20,45,1.85,0,1.9428,2,2,"S1",5,1
"1427",67,20,75,2.85,0,0.8792,1,1,"S1",5,1
"1428",68,20,1,1.55,1,0.6495,1,2,"S1",5,1
"1429",69,20,3,2.55,1,0.855,1,2,"S1",5,1
"1430",70,20,122,2.85,0,0.6465,2,2,"S1",5,1
"1431",71,20,24,1.15,1,0.6764,1,2,"S1",5,1
"1432",72,20,7,3.05,1,0.9779,2,1,"S1",5,1
"1433",73,20,3,3.05,1,0.921,2,1,"S1",5,1
"1434",74,20,58,1.55,0,0.9738,1,1,"S1",5,1
"1435",75,20,13,1.45,1,2.312,2,1,"S1",5,1
"1436",76,20,3,1.25,1,1.3691,1,2,"S1",5,1
"1437",77,20,45,3.05,1,1.7768,2,1,"S1",5,1
"1438",78,20,1,2.05,1,0.7701,1,2,"S1",5,1
"1439",79,20,3,1.9,1,0.9768,1,2,"S1",5,1
"1440",80,20,24,1.45,1,1.5913,1,2,"S1",5,1
"1441",81,20,58,1.05,0,2.0827,2,2,"S1",5,1
"1442",82,20,45,1.65,0,1.6267,2,2,"S1",5,1
"1443",83,20,45,1.55,0,2.0075,1,1,"S1",5,1
"1444",84,20,7,3.85,1,0.9514,2,1,"S1",5,1
"1445",85,20,75,1.9,0,1.356,1,1,"S1",5,1
"1446",86,20,1,1.9,1,0.7079,1,2,"S1",5,1
"1447",87,20,24,1.35,0,1.2745,2,2,"S1",5,1
"1448",88,20,75,2.25,0,1.1097,2,2,"S1",5,1
"1449",89,20,122,1.055,0,1.2645,2,2,"S1",5,1
"1450",90,20,32,1.055,0,1.2029,1,1,"S1",5,1
"1451",91,20,1,1.65,1,1.0673,2,1,"S1",5,1
"1452",92,20,24,1.055,0,1.1067,1,1,"S1",5,1
"1453",93,20,13,1.15,0,1.2427,2,2,"S1",5,1
"1454",94,20,75,3.45,0,0.9644,2,2,"S1",5,1
"1455",95,20,1,1.35,1,1.1068,2,1,"S1",5,1
"1456",96,20,1,2.85,1,1.212,1,2,"S1",5,1
"1457",97,20,75,1.55,0,1.0794,2,2,"S1",5,1
"1458",98,20,58,1.45,0,1.1081,1,1,"S1",5,1
"1459",99,20,7,1.85,1,1.1309,2,1,"S1",5,1
"1460",100,20,3,2.25,1,0.6989,1,2,"S1",5,1
"1461",101,20,3,1.65,1,0.6396,1,2,"S1",5,1
"1462",102,20,24,1.65,0,0.8546,2,2,"S1",5,1
"1463",103,20,58,3.85,0,0.6906,2,2,"S1",5,1
"1464",104,20,1,1.45,1,0.8564,1,2,"S1",5,1
"1465",105,20,24,1.25,0,0.9378,1,1,"S1",5,1
"1466",106,20,3,1.85,1,1.7414,1,2,"S1",5,1
"1467",107,20,13,1.65,0,0.9848,2,2,"S1",5,1
"1468",108,20,58,3.45,0,0.5955,2,2,"S1",5,1
"1469",109,20,13,1.05,0,1.1871,1,1,"S1",5,1
"1470",110,20,45,2.05,0,0.739,1,1,"S1",5,1
"1471",111,20,7,2.25,1,1.1657,2,1,"S1",5,1
"1472",112,20,7,1.35,1,0.9685,1,2,"S1",5,1
"1473",113,20,1,2.55,1,0.6832,1,2,"S1",5,1
"1474",114,20,1,3.85,1,0.6638,1,2,"S1",5,1
"1475",115,20,24,2.05,0,0.9461,1,1,"S1",5,1
"1476",116,20,45,3.85,0,0.7513,2,2,"S1",5,1
"1477",117,20,75,2.55,0,1.4966,2,2,"S1",5,1
"1478",118,20,7,1.25,1,1.1455,1,2,"S1",5,1
"1479",119,20,13,2.55,1,1.5741,2,1,"S1",5,1
"1480",120,20,122,1.45,0,0.8924,1,1,"S1",5,1
"1481",121,20,75,1.35,0,0.8315,2,2,"S1",5,1
"1482",122,20,75,1.85,0,0.992,1,1,"S1",5,1
"1483",123,20,122,2.25,0,1.7972,1,1,"S1",5,1
"1484",124,20,58,3.05,0,0.7371,2,2,"S1",5,1
"1485",125,20,32,1.25,0,1.6984,2,2,"S1",5,1
"1486",126,20,24,2.55,1,1.943,2,1,"S1",5,1
"1487",127,20,3,1.05,0,1.2972,1,1,"S1",5,1
"1488",128,20,13,1.055,0,0.9325,2,2,"S1",5,1
"1489",129,20,1,1.15,1,1.2369,2,1,"S1",5,1
"1490",130,20,3,1.55,1,1.0245,1,2,"S1",5,1
"1491",131,20,58,1.35,0,1.2453,1,1,"S1",5,1
"1492",132,20,3,1.055,0,0.9185,2,2,"S1",5,1
"1493",133,20,24,2.25,1,1.0055,2,1,"S1",5,1
"1494",134,20,75,3.85,0,1.7335,2,2,"S1",5,1
"1495",135,20,122,2.55,0,0.767,2,2,"S1",5,1
"1496",136,20,3,3.45,1,0.9961,1,2,"S1",5,1
"1497",137,20,1,3.45,1,0.9131,2,1,"S1",5,1
"1498",138,20,122,1.25,0,1.6737,2,2,"S1",5,1
"1499",139,20,122,3.85,0,1.245,1,1,"S1",5,1
"1500",140,20,75,2.05,0,1.2947,1,1,"S1",5,1
"1501",141,20,45,1.9,0,0.6533,2,2,"S1",5,1
"1502",142,20,122,3.05,0,0.9277,1,1,"S1",5,1
"1503",143,20,13,2.25,1,1.3748,1,2,"S1",5,1
"1504",144,20,32,3.45,0,1.4949,1,1,"S1",5,1
"1505",145,20,24,3.05,0,1.5606,2,2,"S1",5,1
"1506",146,20,45,2.25,0,1.3343,2,2,"S1",5,1
"1507",147,20,75,1.15,0,0.9642,1,1,"S1",5,1
"1508",148,20,13,2.05,1,1.2986,2,1,"S1",5,1
"1509",149,20,13,2.85,0,0.8204,1,1,"S1",5,1
"1510",150,20,7,2.05,1,0.9921,2,1,"S1",5,1
"1511",151,20,13,1.9,1,1.1496,2,1,"S1",5,1
"1512",152,20,7,2.85,1,3.0941,1,2,"S1",5,1
"1513",153,20,58,1.9,0,1.453,1,1,"S1",5,1
"1514",154,20,1,1.055,0,1.287,1,1,"S1",5,1
"1515",155,20,24,1.55,0,2.3037,2,2,"S1",5,1
"1516",156,20,7,1.55,1,1.5075,1,2,"S1",5,1
"1517",157,20,7,1.45,1,1.5015,1,2,"S1",5,1
"1518",158,20,32,2.25,1,1.5202,2,1,"S1",5,1
"1519",159,20,13,1.85,1,1.1345,2,1,"S1",5,1
"1520",160,20,45,1.35,0,1.8561,2,2,"S1",5,1
"1521",161,20,58,2.85,0,1.5549,1,1,"S1",5,1
"1522",162,20,7,1.055,1,0.754,1,2,"S1",5,1
"1523",163,20,3,1.15,1,0.8926,2,1,"S1",5,1
"1524",164,20,58,1.055,0,0.7806,2,2,"S1",5,1
"1525",165,20,122,1.9,0,1.4029,1,1,"S1",5,1
"1526",166,20,58,1.15,0,1.8592,2,2,"S1",5,1
"1527",167,20,75,1.055,0,0.9421,1,1,"S1",5,1
"1528",168,20,45,1.25,0,0.8963,1,1,"S1",5,1
"1529",169,20,122,1.85,0,0.7408,2,2,"S1",5,1
"1530",170,20,3,1.35,1,1.4526,2,1,"S1",5,1
"1531",1,20,2,1.9,1,2.0455,1,2,"S2",5,0
"1532",2,20,29,2.5,1,1.4233,2,1,"S2",5,0
"1533",3,20,23,1.83,1,2.5033,2,1,"S2",5,0
"1534",4,20,50,1.02,0,1.2627,1,1,"S2",5,0
"1535",5,20,14,1.33,0,1.6974,2,2,"S2",5,0
"1536",6,20,50,3.1,1,1.251,1,2,"S2",5,0
"1537",7,20,14,1.025,0,1.2668,1,1,"S2",5,0
"1538",8,20,118,1.47,0,1.4515,1,1,"S2",5,0
"1539",9,20,6,2.3,1,1.5492,2,1,"S2",5,0
"1540",10,20,2,1.7,1,1.1163,2,1,"S2",5,0
"1541",11,20,23,1.02,0,1.7659,2,2,"S2",5,0
"1542",12,20,62,2.8,1,0.9762,1,2,"S2",5,0
"1543",13,20,23,1.7,1,1.2618,2,1,"S2",5,0
"1544",14,20,29,2.8,1,1.1355,1,2,"S2",5,0
"1545",15,20,2,1.33,1,1.1419,1,2,"S2",5,0
"1546",16,20,50,1.08,0,0.9112,1,1,"S2",5,0
"1547",17,20,2,3.1,1,0.6607,1,2,"S2",5,0
"1548",18,20,2,2.07,1,0.7014,1,2,"S2",5,0
"1549",19,20,62,2.3,1,0.9237,2,1,"S2",5,0
"1550",20,20,62,1.025,0,0.8617,1,1,"S2",5,0
"1551",21,20,50,3.5,1,0.9653,1,2,"S2",5,0
"1552",22,20,29,1.33,0,1.3121,1,1,"S2",5,0
"1553",23,20,118,2.5,1,1.2692,2,1,"S2",5,0
"1554",24,20,14,2.5,1,0.8999,1,2,"S2",5,0
"1555",25,20,118,1.2,0,1.1958,1,1,"S2",5,0
"1556",26,20,23,3.8,1,1.0036,2,1,"S2",5,0
"1557",27,20,4,3.5,1,0.9272,1,2,"S2",5,0
"1558",28,20,50,2.8,0,1.9271,2,2,"S2",5,0
"1559",29,20,4,1.33,1,1.1875,2,1,"S2",5,0
"1560",30,20,50,3.8,1,1.0134,1,2,"S2",5,0
"1561",31,20,118,3.8,1,1.3084,2,1,"S2",5,0
"1562",32,20,29,1.9,1,1.3336,1,2,"S2",5,0
"1563",33,20,118,1.9,0,1.661,1,1,"S2",5,0
"1564",34,20,62,3.8,1,1.1713,1,2,"S2",5,0
"1565",35,20,50,1.7,1,0.9966,2,1,"S2",5,0
"1566",36,20,14,3.5,1,0.8236,1,2,"S2",5,0
"1567",37,20,2,2.5,1,0.9666,1,2,"S2",5,0
"1568",38,20,50,1.5,1,0.9256,1,2,"S2",5,0
"1569",39,20,2,3.5,1,0.8259,2,1,"S2",5,0
"1570",40,20,73,1.2,0,1.3714,2,2,"S2",5,0
"1571",41,20,6,1.5,1,1.6451,2,1,"S2",5,0
"1572",42,20,62,2.07,1,1.512,1,2,"S2",5,0
"1573",43,20,118,1.7,0,1.1946,1,1,"S2",5,0
"1574",44,20,6,1.08,1,1.7135,1,2,"S2",5,0
"1575",45,20,73,1.5,1,1.961,1,2,"S2",5,0
"1576",46,20,29,1.2,0,1.3635,1,1,"S2",5,0
"1577",47,20,23,2.5,1,1.2714,2,1,"S2",5,0
"1578",48,20,62,1.33,0,0.9456,2,2,"S2",5,0
"1579",49,20,4,1.7,1,0.696,1,2,"S2",5,0
"1580",50,20,6,1.2,1,0.8383,1,2,"S2",5,0
"1581",51,20,14,1.5,1,0.8563,2,1,"S2",5,0
"1582",52,20,73,2.07,1,0.6087,1,2,"S2",5,0
"1583",53,20,6,2.07,1,0.8379,2,1,"S2",5,0
"1584",54,20,29,2.07,1,0.6414,2,1,"S2",5,0
"1585",55,20,2,1.2,1,0.8092,1,2,"S2",5,0
"1586",56,20,2,2.3,1,0.771,2,1,"S2",5,0
"1587",57,20,73,1.02,0,1.0628,1,1,"S2",5,0
"1588",58,20,73,1.47,1,2.3586,1,2,"S2",5,0
"1589",59,20,62,1.2,1,1.3871,2,1,"S2",5,0
"1590",60,20,62,1.2,0,0.8095,2,2,"S2",5,0
"1591",61,20,6,2.8,0,0.5237,1,1,"S2",5,0
"1592",62,20,62,1.085,0,1.0942,1,1,"S2",5,0
"1593",63,20,29,1.7,1,1.4059,1,2,"S2",5,0
"1594",64,20,73,2.8,0,2.3453,2,2,"S2",5,0
"1595",65,20,23,2.3,1,1.1112,1,2,"S2",5,0
"1596",66,20,14,1.83,1,1.5206,2,1,"S2",5,0
"1597",67,20,14,1.9,1,0.9977,2,1,"S2",5,0
"1598",68,20,14,2.07,1,0.9298,1,2,"S2",5,0
"1599",69,20,14,1.7,1,0.9888,1,2,"S2",5,0
"1600",70,20,118,2.8,1,4.4201,1,2,"S2",5,0
"1601",71,20,73,1.83,1,1.787,1,2,"S2",5,0
"1602",72,20,118,1.33,0,1.1731,1,1,"S2",5,0
"1603",73,20,73,3.5,1,4.1504,1,2,"S2",5,0
"1604",74,20,118,1.025,0,1.577,1,1,"S2",5,0
"1605",75,20,62,2.5,1,1.1753,1,2,"S2",5,0
"1606",76,20,14,3.8,1,1.8579,2,1,"S2",5,0
"1607",77,20,62,3.1,1,0.7351,1,2,"S2",5,0
"1608",78,20,6,1.47,1,2.0225,2,1,"S2",5,0
"1609",79,20,73,2.3,1,2.5958,1,2,"S2",5,0
"1610",80,20,73,1.08,0,2.5542,2,2,"S2",5,0
"1611",81,20,118,1.2,0,1.8871,2,2,"S2",5,0
"1612",82,20,62,3.5,1,2.2871,1,2,"S2",5,0
"1613",83,20,2,1.2,1,1.6169,1,2,"S2",5,0
"1614",84,20,4,1.085,0,1.7561,1,1,"S2",5,0
"1615",85,20,73,1.9,1,4.1036,1,2,"S2",5,0
"1616",86,20,2,1.47,1,1.3415,1,2,"S2",5,0
"1617",87,20,23,1.5,1,1.0475,2,1,"S2",5,0
"1618",88,20,118,2.3,0,3.5466,1,1,"S2",5,0
"1619",89,20,118,1.83,0,2.3821,1,1,"S2",5,0
"1620",90,20,118,3.5,0,2.2965,2,2,"S2",5,0
"1621",91,20,29,2.3,1,1.7481,2,1,"S2",5,0
"1622",92,20,50,2.3,1,2.967,2,1,"S2",5,0
"1623",93,20,6,3.8,1,3.4702,1,2,"S2",5,0
"1624",94,20,23,3.1,1,1.1658,2,1,"S2",5,0
"1625",95,20,4,2.5,1,0.9446,2,1,"S2",5,0
"1626",96,20,2,1.5,1,2.5421,1,2,"S2",5,0
"1627",97,20,14,1.47,1,2.4902,2,1,"S2",5,0
"1628",98,20,50,2.5,1,0.8627,2,1,"S2",5,0
"1629",99,20,62,1.5,1,2.1303,1,2,"S2",5,0
"1630",100,20,23,3.5,1,1.3007,1,2,"S2",5,0
"1631",101,20,23,2.8,1,1.1938,1,2,"S2",5,0
"1632",102,20,29,1.025,0,1.2539,1,1,"S2",5,0
"1633",103,20,4,2.8,1,0.8573,1,2,"S2",5,0
"1634",104,20,4,2.3,1,0.7855,2,1,"S2",5,0
"1635",105,20,50,1.9,1,1.6261,2,1,"S2",5,0
"1636",106,20,4,1.025,0,1.5401,2,2,"S2",5,0
"1637",107,20,50,1.2,0,1.3589,2,2,"S2",5,0
"1638",108,20,4,1.5,1,0.7535,1,2,"S2",5,0
"1639",109,20,14,3.1,1,2.4567,2,1,"S2",5,0
"1640",110,20,23,2.07,1,1.6704,1,2,"S2",5,0
"1641",111,20,62,1.9,1,1.0629,2,1,"S2",5,0
"1642",112,20,4,3.8,1,0.7935,1,2,"S2",5,0
"1643",113,20,2,1.83,1,0.9865,1,2,"S2",5,0
"1644",114,20,29,1.085,0,1.6957,2,2,"S2",5,0
"1645",115,20,118,1.5,0,2.0751,2,2,"S2",5,0
"1646",116,20,73,1.2,0,3.0373,1,1,"S2",5,0
"1647",117,20,4,1.2,1,2.398,1,2,"S2",5,0
"1648",118,20,62,1.7,1,3.6037,2,1,"S2",5,0
"1649",119,20,50,1.2,0,2.0848,2,2,"S2",5,0
"1650",120,20,23,1.2,1,4.79,1,2,"S2",5,0
"1651",121,20,4,2.07,1,1.9631,2,1,"S2",5,0
"1652",122,20,6,2.5,1,0.8441,2,1,"S2",5,0
"1653",123,20,50,1.33,1,4.8435,2,1,"S2",5,0
"1654",124,20,29,3.8,1,0.8401,2,1,"S2",5,0
"1655",125,20,29,3.5,1,2.4928,2,1,"S2",5,0
"1656",126,20,73,2.5,1,2.0119,2,1,"S2",5,0
"1657",127,20,73,3.8,1,1.2805,1,2,"S2",5,0
"1658",128,20,4,1.2,1,1.7029,2,1,"S2",5,0
"1659",129,20,2,3.8,1,1.0702,2,1,"S2",5,0
"1660",130,20,6,1.02,0,2.532,2,2,"S2",5,0
"1661",131,20,23,1.47,1,1.5999,2,1,"S2",5,0
"1662",132,20,73,1.7,1,2.6276,2,1,"S2",5,0
"1663",133,20,14,2.3,1,1.0887,2,1,"S2",5,0
"1664",134,20,62,1.83,1,3.2509,1,2,"S2",5,0
"1665",135,20,6,3.5,1,0.8684,1,2,"S2",5,0
"1666",136,20,23,1.9,1,1.4386,1,2,"S2",5,0
"1667",137,20,2,1.08,1,2.868,1,2,"S2",5,0
"1668",138,20,118,1.085,0,1.4886,1,1,"S2",5,0
"1669",139,20,73,1.33,0,6.9923,1,1,"S2",5,0
"1670",140,20,4,1.83,1,1.7255,1,2,"S2",5,0
"1671",141,20,50,1.47,1,3.602,1,2,"S2",5,0
"1672",142,20,6,1.83,1,0.924,2,1,"S2",5,0
"1673",143,20,6,3.1,1,0.9694,1,2,"S2",5,0
"1674",144,20,14,1.2,1,0.7757,2,1,"S2",5,0
"1675",145,20,6,1.33,1,0.8924,2,1,"S2",5,0
"1676",146,20,118,2.07,1,2.3723,2,1,"S2",5,0
"1677",147,20,6,1.9,1,1.1888,2,1,"S2",5,0
"1678",148,20,14,2.8,1,3.809,2,1,"S2",5,0
"1679",149,20,14,1.2,1,1.9542,1,2,"S2",5,0
"1680",150,20,118,3.1,1,0.9724,2,1,"S2",5,0
"1681",151,20,50,1.83,1,3.7729,2,1,"S2",5,0
"1682",152,20,2,2.8,1,0.8549,1,2,"S2",5,0
"1683",153,20,23,1.2,0,1.8114,1,1,"S2",5,0
"1684",154,20,4,3.1,1,1.5155,2,1,"S2",5,0
"1685",155,20,4,1.47,1,2.1997,1,2,"S2",5,0
"1686",156,20,29,3.1,1,1.6924,2,1,"S2",5,0
"1687",157,20,29,1.83,1,1.4245,2,1,"S2",5,0
"1688",158,20,29,1.5,1,3.467,1,2,"S2",5,0
"1689",159,20,4,1.9,1,1.6857,1,2,"S2",5,0
"1690",160,20,29,1.2,0,4.27,2,2,"S2",5,0
"1691",161,20,50,2.07,1,1.4477,1,2,"S2",5,0
"1692",162,20,23,1.33,1,1.9258,2,1,"S2",5,0
"1693",163,20,73,3.1,1,2.1879,2,1,"S2",5,0
"1694",164,20,23,1.08,0,1.4937,1,1,"S2",5,0
"1695",165,20,29,1.47,1,0.992,1,2,"S2",5,0
"1696",166,20,2,1.02,1,3.2458,1,2,"S2",5,0
"1697",167,20,14,1.085,1,2.4771,2,1,"S2",5,0
"1698",168,20,6,1.2,1,2.2377,1,2,"S2",5,0
"1699",169,20,62,1.47,1,3.2971,1,2,"S2",5,0
"1700",170,20,6,1.7,1,1.1113,2,1,"S2",5,0
"1701",1,20,32,1.85,1,1.423,2,1,"S1",6,0
"1702",2,20,32,1.35,1,0.6235,1,2,"S1",6,0
"1703",3,20,45,3.45,1,0.7228,1,2,"S1",6,0
"1704",4,20,45,1.15,1,0.8014,1,2,"S1",6,0
"1705",5,20,3,1.35,1,0.6504,2,1,"S1",6,0
"1706",6,20,122,1.25,1,0.6842,2,1,"S1",6,0
"1707",7,20,24,2.05,1,1.2142,2,1,"S1",6,0
"1708",8,20,1,3.45,1,1.7028,2,1,"S1",6,0
"1709",9,20,58,1.9,1,1.2256,1,2,"S1",6,0
"1710",10,20,32,1.65,1,1.341,2,1,"S1",6,0
"1711",11,20,7,2.25,1,0.8849,2,1,"S1",6,0
"1712",12,20,3,1.45,1,1.1066,1,2,"S1",6,0
"1713",13,20,24,1.9,1,0.626,1,2,"S1",6,0
"1714",14,20,75,1.15,1,0.9131,1,2,"S1",6,0
"1715",15,20,45,1.05,0,1.1083,2,2,"S1",6,0
"1716",16,20,7,1.85,1,0.8867,1,2,"S1",6,0
"1717",17,20,1,2.55,1,0.9108,1,2,"S1",6,0
"1718",18,20,24,3.85,1,3.7197,2,1,"S1",6,0
"1719",19,20,122,3.05,1,2.3705,1,2,"S1",6,0
"1720",20,20,45,2.25,1,0.6162,2,1,"S1",6,0
"1721",21,20,75,1.55,1,1.323,1,2,"S1",6,0
"1722",22,20,58,3.85,1,0.9765,1,2,"S1",6,0
"1723",23,20,3,1.65,1,0.9526,2,1,"S1",6,0
"1724",24,20,58,2.55,1,0.6943,1,2,"S1",6,0
"1725",25,20,3,1.9,1,1.751,2,1,"S1",6,0
"1726",26,20,3,3.05,1,0.5881,1,2,"S1",6,0
"1727",27,20,13,1.85,1,0.7937,2,1,"S1",6,0
"1728",28,20,1,3.85,1,0.5607,2,1,"S1",6,0
"1729",29,20,45,2.55,1,0.7278,2,1,"S1",6,0
"1730",30,20,75,1.85,1,0.7552,2,1,"S1",6,0
"1731",31,20,7,1.45,1,1.1242,1,2,"S1",6,0
"1732",32,20,1,1.45,1,0.9904,1,2,"S1",6,0
"1733",33,20,32,2.25,1,0.5379,1,2,"S1",6,0
"1734",34,20,58,1.05,1,0.6573,2,1,"S1",6,0
"1735",35,20,45,2.05,1,0.7207,2,1,"S1",6,0
"1736",36,20,32,1.45,1,0.7802,1,2,"S1",6,0
"1737",37,20,1,3.05,1,0.8687,1,2,"S1",6,0
"1738",38,20,32,1.15,1,1.1354,2,1,"S1",6,0
"1739",39,20,32,1.05,1,0.7911,2,1,"S1",6,0
"1740",40,20,75,2.05,1,1.269,2,1,"S1",6,0
"1741",41,20,75,2.85,1,1.4014,2,1,"S1",6,0
"1742",42,20,13,2.05,1,0.8295,2,1,"S1",6,0
"1743",43,20,3,1.55,1,1.4607,1,2,"S1",6,0
"1744",44,20,13,3.05,1,0.6341,1,2,"S1",6,0
"1745",45,20,24,1.055,1,1.9526,1,2,"S1",6,0
"1746",46,20,3,3.85,1,1.095,2,1,"S1",6,0
"1747",47,20,58,1.35,1,0.8131,2,1,"S1",6,0
"1748",48,20,75,2.55,1,0.5804,2,1,"S1",6,0
"1749",49,20,3,2.85,1,0.675,1,2,"S1",6,0
"1750",50,20,13,1.35,1,0.6689,2,1,"S1",6,0
"1751",51,20,45,1.65,1,0.6546,1,2,"S1",6,0
"1752",52,20,75,2.25,1,1.3593,1,2,"S1",6,0
"1753",53,20,122,2.25,1,0.5722,2,1,"S1",6,0
"1754",54,20,1,1.15,1,1.0393,1,2,"S1",6,0
"1755",55,20,13,1.45,1,0.8885,2,1,"S1",6,0
"1756",56,20,1,1.25,1,1.2407,1,2,"S1",6,0
"1757",57,20,13,2.55,1,0.8215,2,1,"S1",6,0
"1758",58,20,75,3.05,1,0.6309,2,1,"S1",6,0
"1759",59,20,3,2.25,1,0.8396,2,1,"S1",6,0
"1760",60,20,122,1.055,1,1.7385,2,1,"S1",6,0
"1761",61,20,122,1.15,1,0.9055,2,1,"S1",6,0
"1762",62,20,122,1.65,1,1.0742,2,1,"S1",6,0
"1763",63,20,75,1.65,1,1.2828,1,2,"S1",6,0
"1764",64,20,7,3.85,1,0.6807,2,1,"S1",6,0
"1765",65,20,45,1.45,1,0.6946,1,2,"S1",6,0
"1766",66,20,24,1.65,1,0.692,1,2,"S1",6,0
"1767",67,20,7,1.65,1,0.7278,1,2,"S1",6,0
"1768",68,20,13,2.85,1,0.5565,1,2,"S1",6,0
"1769",69,20,45,1.85,1,0.6469,1,2,"S1",6,0
"1770",70,20,75,1.05,1,0.799,2,1,"S1",6,0
"1771",71,20,24,2.85,1,0.741,1,2,"S1",6,0
"1772",72,20,32,2.55,1,0.4742,2,1,"S1",6,0
"1773",73,20,7,1.25,1,0.5917,2,1,"S1",6,0
"1774",74,20,122,1.55,1,0.7324,1,2,"S1",6,0
"1775",75,20,75,1.055,1,0.8489,1,2,"S1",6,0
"1776",76,20,58,1.55,1,0.5238,1,2,"S1",6,0
"1777",77,20,3,3.45,1,1.0364,1,2,"S1",6,0
"1778",78,20,7,1.05,0,0.7822,2,2,"S1",6,0
"1779",79,20,58,1.15,1,1.1155,2,1,"S1",6,0
"1780",80,20,24,2.25,1,0.7004,1,2,"S1",6,0
"1781",81,20,7,3.45,1,0.9944,2,1,"S1",6,0
"1782",82,20,58,1.45,1,0.6752,2,1,"S1",6,0
"1783",83,20,24,1.35,1,0.8773,2,1,"S1",6,0
"1784",84,20,24,3.05,1,0.4998,2,1,"S1",6,0
"1785",85,20,7,1.15,1,0.612,1,2,"S1",6,0
"1786",86,20,122,1.45,1,0.5214,1,2,"S1",6,0
"1787",87,20,24,2.55,1,1.0089,1,2,"S1",6,0
"1788",88,20,3,1.05,0,0.7321,2,2,"S1",6,0
"1789",89,20,45,3.85,1,0.6856,2,1,"S1",6,0
"1790",90,20,45,2.85,1,0.6631,1,2,"S1",6,0
"1791",91,20,32,3.45,1,0.587,2,1,"S1",6,0
"1792",92,20,32,3.05,1,0.8385,1,2,"S1",6,0
"1793",93,20,1,1.55,1,0.5,2,1,"S1",6,0
"1794",94,20,3,2.55,1,0.5958,2,1,"S1",6,0
"1795",95,20,1,1.05,0,0.7906,2,2,"S1",6,0
"1796",96,20,32,1.055,1,0.8453,2,1,"S1",6,0
"1797",97,20,24,3.45,1,0.657,1,2,"S1",6,0
"1798",98,20,58,1.65,1,0.7878,1,2,"S1",6,0
"1799",99,20,1,1.9,1,0.6814,2,1,"S1",6,0
"1800",100,20,7,1.9,1,0.6981,2,1,"S1",6,0
"1801",101,20,122,1.35,1,0.6577,2,1,"S1",6,0
"1802",102,20,24,1.15,1,0.9194,2,1,"S1",6,0
"1803",103,20,24,1.85,1,0.8214,2,1,"S1",6,0
"1804",104,20,45,1.9,1,0.6024,2,1,"S1",6,0
"1805",105,20,1,1.055,1,0.6781,2,1,"S1",6,0
"1806",106,20,122,3.45,1,1.2324,2,1,"S1",6,0
"1807",107,20,13,1.9,1,0.6614,1,2,"S1",6,0
"1808",108,20,58,2.25,1,0.5938,1,2,"S1",6,0
"1809",109,20,24,1.55,1,0.6239,2,1,"S1",6,0
"1810",110,20,13,3.45,1,0.7305,1,2,"S1",6,0
"1811",111,20,1,2.05,1,0.8695,1,2,"S1",6,0
"1812",112,20,45,1.055,1,0.5741,1,2,"S1",6,0
"1813",113,20,75,1.25,1,0.6668,1,2,"S1",6,0
"1814",114,20,32,3.85,1,1.465,1,2,"S1",6,0
"1815",115,20,3,1.85,1,0.5695,1,2,"S1",6,0
"1816",116,20,32,2.85,1,0.5938,2,1,"S1",6,0
"1817",117,20,7,2.85,1,0.5984,1,2,"S1",6,0
"1818",118,20,45,1.55,1,0.6789,1,2,"S1",6,0
"1819",119,20,7,1.055,0,1.1484,2,2,"S1",6,0
"1820",120,20,122,1.9,0,0.748,2,2,"S1",6,0
"1821",121,20,13,1.25,0,0.7554,2,2,"S1",6,0
"1822",122,20,75,1.9,0,1.2039,2,2,"S1",6,0
"1823",123,20,122,1.05,0,1.1497,1,1,"S1",6,0
"1824",124,20,58,1.85,0,0.6028,1,1,"S1",6,0
"1825",125,20,13,1.65,1,1.0894,1,2,"S1",6,0
"1826",126,20,122,3.85,0,1.172,2,2,"S1",6,0
"1827",127,20,1,2.25,1,0.7029,1,2,"S1",6,0
"1828",128,20,122,2.05,0,1.0302,2,2,"S1",6,0
"1829",129,20,7,2.55,1,1.021,1,2,"S1",6,0
"1830",130,20,3,1.055,1,1.3559,2,1,"S1",6,0
"1831",131,20,24,1.05,0,1.0232,1,1,"S1",6,0
"1832",132,20,3,1.15,1,1.062,2,1,"S1",6,0
"1833",133,20,1,1.65,1,0.7518,2,1,"S1",6,0
"1834",134,20,32,2.05,1,1.0489,2,1,"S1",6,0
"1835",135,20,7,1.55,1,1.022,1,2,"S1",6,0
"1836",136,20,13,1.55,1,0.986,1,2,"S1",6,0
"1837",137,20,75,3.45,1,0.6777,1,2,"S1",6,0
"1838",138,20,1,1.35,1,0.6148,2,1,"S1",6,0
"1839",139,20,122,2.85,1,1.679,1,2,"S1",6,0
"1840",140,20,75,3.85,0,1.0873,2,2,"S1",6,0
"1841",141,20,13,1.15,0,1.2029,1,1,"S1",6,0
"1842",142,20,1,1.85,1,0.5952,2,1,"S1",6,0
"1843",143,20,58,3.45,1,0.7009,2,1,"S1",6,0
"1844",144,20,7,3.05,1,0.5169,2,1,"S1",6,0
"1845",145,20,75,1.45,1,0.7029,2,1,"S1",6,0
"1846",146,20,13,2.25,1,0.7892,2,1,"S1",6,0
"1847",147,20,58,3.05,1,1.143,2,1,"S1",6,0
"1848",148,20,58,2.85,1,0.6664,2,1,"S1",6,0
"1849",149,20,13,1.05,0,0.873,2,2,"S1",6,0
"1850",150,20,58,2.05,1,0.8838,1,2,"S1",6,0
"1851",151,20,24,1.25,1,0.7476,1,2,"S1",6,0
"1852",152,20,58,1.25,1,1.5502,2,1,"S1",6,0
"1853",153,20,7,2.05,1,0.4706,1,2,"S1",6,0
"1854",154,20,45,1.35,0,0.6158,1,1,"S1",6,0
"1855",155,20,24,1.45,1,0.6074,1,2,"S1",6,0
"1856",156,20,45,3.05,1,1.0618,1,2,"S1",6,0
"1857",157,20,58,1.055,1,0.8061,2,1,"S1",6,0
"1858",158,20,3,1.25,1,0.7029,1,2,"S1",6,0
"1859",159,20,122,2.55,0,1.0725,2,2,"S1",6,0
"1860",160,20,13,1.055,0,1.3748,1,1,"S1",6,0
"1861",161,20,3,2.05,0,0.8362,1,1,"S1",6,0
"1862",162,20,32,1.55,0,1.9409,2,2,"S1",6,0
"1863",163,20,13,3.85,1,1.3378,2,1,"S1",6,0
"1864",164,20,32,1.25,1,1.157,1,2,"S1",6,0
"1865",165,20,122,1.85,1,1.3926,2,1,"S1",6,0
"1866",166,20,7,1.35,0,1.5368,1,1,"S1",6,0
"1867",167,20,32,1.9,1,1.1902,2,1,"S1",6,0
"1868",168,20,1,2.85,1,1.3317,1,2,"S1",6,0
"1869",169,20,45,1.25,1,0.8936,2,1,"S1",6,0
"1870",170,20,75,1.35,1,1.386,2,1,"S1",6,0
"1871",1,20,50,3.1,1,5.8656,1,2,"S2",6,1
"1872",2,20,50,1.33,0,4.1321,2,2,"S2",6,1
"1873",3,20,73,1.5,1,3.1153,1,2,"S2",6,1
"1874",4,20,118,3.5,1,3.1407,1,2,"S2",6,1
"1875",5,20,73,2.3,0,1.9495,1,1,"S2",6,1
"1876",6,20,50,1.7,0,2.5845,1,1,"S2",6,1
"1877",7,20,14,1.5,1,3.1021,2,1,"S2",6,1
"1878",8,20,73,1.2,0,3.3868,1,1,"S2",6,1
"1879",9,20,4,1.2,1,2.5924,1,2,"S2",6,1
"1880",10,20,2,2.3,1,1.8999,2,1,"S2",6,1
"1881",11,20,14,2.3,1,1.091,2,1,"S2",6,1
"1882",12,20,50,2.8,1,1.1751,2,1,"S2",6,1
"1883",13,20,4,1.33,1,1.8892,2,1,"S2",6,1
"1884",14,20,50,1.08,0,2.3473,2,2,"S2",6,1
"1885",15,20,4,2.3,1,1.7667,1,2,"S2",6,1
"1886",16,20,6,1.2,1,2.1472,2,1,"S2",6,1
"1887",17,20,50,1.83,1,2.2577,2,1,"S2",6,1
"1888",18,20,118,2.3,1,3.9136,2,1,"S2",6,1
"1889",19,20,29,1.47,1,3.1077,2,1,"S2",6,1
"1890",20,20,118,1.085,0,1.3908,2,2,"S2",6,1
"1891",21,20,29,3.8,1,1.7368,1,2,"S2",6,1
"1892",22,20,6,2.5,1,1.4168,1,2,"S2",6,1
"1893",23,20,14,1.83,1,1.547,1,2,"S2",6,1
"1894",24,20,6,2.3,1,1.3792,2,1,"S2",6,1
"1895",25,20,2,1.2,1,1.2527,2,1,"S2",6,1
"1896",26,20,29,2.07,1,1.5723,1,2,"S2",6,1
"1897",27,20,14,3.1,1,1.13,1,2,"S2",6,1
"1898",28,20,6,2.8,1,1.108,2,1,"S2",6,1
"1899",29,20,4,1.2,1,1.3886,1,2,"S2",6,1
"1900",30,20,14,1.33,1,1.3805,2,1,"S2",6,1
"1901",31,20,73,1.2,0,1.8664,1,1,"S2",6,1
"1902",32,20,23,1.2,1,2.3297,1,2,"S2",6,1
"1903",33,20,50,2.3,1,1.2408,1,2,"S2",6,1
"1904",34,20,2,1.2,1,1.8569,1,2,"S2",6,1
"1905",35,20,62,2.07,1,2.7061,2,1,"S2",6,1
"1906",36,20,29,3.5,1,1.2464,2,1,"S2",6,1
"1907",37,20,6,1.7,1,1.1835,1,2,"S2",6,1
"1908",38,20,62,1.2,0,2.446,1,1,"S2",6,1
"1909",39,20,50,1.47,1,2.1375,2,1,"S2",6,1
"1910",40,20,4,1.025,0,2.0005,1,1,"S2",6,1
"1911",41,20,118,1.2,0,2.8945,2,2,"S2",6,1
"1912",42,20,29,1.085,1,1.7664,1,2,"S2",6,1
"1913",43,20,50,2.5,1,2.2207,2,1,"S2",6,1
"1914",44,20,2,3.5,1,0.9732,2,1,"S2",6,1
"1915",45,20,6,1.9,1,1.4509,1,2,"S2",6,1
"1916",46,20,118,1.9,1,1.0557,2,1,"S2",6,1
"1917",47,20,2,1.02,0,2.2456,1,1,"S2",6,1
"1918",48,20,73,3.5,1,2.7748,2,1,"S2",6,1
"1919",49,20,50,1.2,0,2.3548,1,1,"S2",6,1
"1920",50,20,62,1.085,0,1.7728,1,1,"S2",6,1
"1921",51,20,62,3.1,1,1.2902,2,1,"S2",6,1
"1922",52,20,73,3.1,1,1.4819,2,1,"S2",6,1
"1923",53,20,73,1.33,0,2.2169,1,1,"S2",6,1
"1924",54,20,29,1.2,0,1.9316,1,1,"S2",6,1
"1925",55,20,6,2.07,1,1.1061,2,1,"S2",6,1
"1926",56,20,6,3.5,1,1.0271,2,1,"S2",6,1
"1927",57,20,2,1.7,1,1.0727,2,1,"S2",6,1
"1928",58,20,73,2.07,1,0.8389,2,1,"S2",6,1
"1929",59,20,62,2.8,1,1.2293,1,2,"S2",6,1
"1930",60,20,50,1.02,0,1.3005,1,1,"S2",6,1
"1931",61,20,29,1.7,1,1.428,2,1,"S2",6,1
"1932",62,20,118,1.025,0,1.8926,2,2,"S2",6,1
"1933",63,20,23,3.5,1,1.4964,2,1,"S2",6,1
"1934",64,20,29,2.8,1,1.2082,1,2,"S2",6,1
"1935",65,20,23,3.1,1,0.8543,1,2,"S2",6,1
"1936",66,20,29,1.5,1,1.7227,1,2,"S2",6,1
"1937",67,20,29,1.83,1,1.8404,1,2,"S2",6,1
"1938",68,20,50,1.5,1,2.2658,2,1,"S2",6,1
"1939",69,20,6,1.5,1,1.9363,2,1,"S2",6,1
"1940",70,20,14,1.025,0,1.4933,1,1,"S2",6,1
"1941",71,20,118,1.33,0,1.7331,2,2,"S2",6,1
"1942",72,20,50,3.5,1,1.03,1,2,"S2",6,1
"1943",73,20,4,3.5,1,0.9052,1,2,"S2",6,1
"1944",74,20,4,1.9,1,0.7731,1,2,"S2",6,1
"1945",75,20,29,1.9,1,1.4434,2,1,"S2",6,1
"1946",76,20,23,3.8,1,2.016,1,2,"S2",6,1
"1947",77,20,2,1.33,1,1.2516,2,1,"S2",6,1
"1948",78,20,14,1.2,1,1.6456,1,2,"S2",6,1
"1949",79,20,73,1.47,0,1.9125,2,2,"S2",6,1
"1950",80,20,23,1.83,1,1.4203,1,2,"S2",6,1
"1951",81,20,2,2.07,1,1.639,2,1,"S2",6,1
"1952",82,20,29,1.33,1,1.3259,2,1,"S2",6,1
"1953",83,20,62,1.2,0,1.9917,1,1,"S2",6,1
"1954",84,20,6,3.1,1,1.0744,1,2,"S2",6,1
"1955",85,20,23,1.7,1,1.7864,2,1,"S2",6,1
"1956",86,20,23,2.07,1,1.3199,1,2,"S2",6,1
"1957",87,20,4,2.5,1,1.2412,1,2,"S2",6,1
"1958",88,20,14,1.085,0,2.6697,1,1,"S2",6,1
"1959",89,20,6,1.02,1,1.7407,1,2,"S2",6,1
"1960",90,20,29,2.5,1,1.0807,1,2,"S2",6,1
"1961",91,20,50,1.2,1,1.0701,1,2,"S2",6,1
"1962",92,20,2,2.8,1,1.6384,1,2,"S2",6,1
"1963",93,20,14,3.8,1,1.1759,2,1,"S2",6,1
"1964",94,20,4,1.83,1,1.2362,1,2,"S2",6,1
"1965",95,20,4,1.5,1,1.644,2,1,"S2",6,1
"1966",96,20,62,1.83,1,1.0999,1,2,"S2",6,1
"1967",97,20,62,1.025,0,1.3274,2,2,"S2",6,1
"1968",98,20,6,1.08,0,1.8188,2,2,"S2",6,1
"1969",99,20,118,1.47,0,3.2186,2,2,"S2",6,1
"1970",100,20,2,2.5,1,0.9946,2,1,"S2",6,1
"1971",101,20,23,2.5,1,1.1924,1,2,"S2",6,1
"1972",102,20,73,1.7,0,2.4091,1,1,"S2",6,1
"1973",103,20,50,3.8,1,0.977,2,1,"S2",6,1
"1974",104,20,62,1.5,1,1.8142,2,1,"S2",6,1
"1975",105,20,73,3.8,1,1.5946,1,2,"S2",6,1
"1976",106,20,73,2.5,1,1.4393,2,1,"S2",6,1
"1977",107,20,118,1.5,0,2.0956,1,1,"S2",6,1
"1978",108,20,62,1.33,1,1.6362,2,1,"S2",6,1
"1979",109,20,2,1.08,1,3.049,1,2,"S2",6,1
"1980",110,20,73,1.83,1,1.2254,2,1,"S2",6,1
"1981",111,20,62,1.7,1,1.2532,1,2,"S2",6,1
"1982",112,20,73,1.9,1,1.2111,2,1,"S2",6,1
"1983",113,20,2,1.9,1,1.0496,2,1,"S2",6,1
"1984",114,20,4,1.7,1,1.422,1,2,"S2",6,1
"1985",115,20,2,1.47,1,1.5376,1,2,"S2",6,1
"1986",116,20,62,1.9,1,1.3454,1,2,"S2",6,1
"1987",117,20,29,2.3,1,1.4419,1,2,"S2",6,1
"1988",118,20,4,1.47,1,1.6276,1,2,"S2",6,1
"1989",119,20,23,1.2,1,1.7518,1,2,"S2",6,1
"1990",120,20,118,2.8,0,2.7204,2,2,"S2",6,1
"1991",121,20,6,1.47,1,0.8897,2,1,"S2",6,1
"1992",122,20,14,1.7,1,1.3178,2,1,"S2",6,1
"1993",123,20,14,1.2,1,1.8821,1,2,"S2",6,1
"1994",124,20,50,1.9,1,1.0887,1,2,"S2",6,1
"1995",125,20,29,1.025,0,1.1443,2,2,"S2",6,1
"1996",126,20,14,2.5,1,1.0525,1,2,"S2",6,1
"1997",127,20,23,1.33,1,0.8264,1,2,"S2",6,1
"1998",128,20,62,1.47,1,0.8014,1,2,"S2",6,1
"1999",129,20,4,2.8,1,1.0428,1,2,"S2",6,1
"2000",130,20,118,1.2,0,1.5208,1,1,"S2",6,1
"2001",131,20,4,2.07,1,0.9526,1,2,"S2",6,1
"2002",132,20,118,2.5,1,2.8247,1,2,"S2",6,1
"2003",133,20,6,1.83,1,1.3466,1,2,"S2",6,1
"2004",134,20,73,1.02,0,1.1324,1,1,"S2",6,1
"2005",135,20,14,3.5,1,1.1019,2,1,"S2",6,1
"2006",136,20,2,1.5,1,0.8149,2,1,"S2",6,1
"2007",137,20,23,1.5,1,1.0747,2,1,"S2",6,1
"2008",138,20,73,2.8,1,0.9806,2,1,"S2",6,1
"2009",139,20,2,3.1,1,0.9323,1,2,"S2",6,1
"2010",140,20,62,3.5,1,0.8552,2,1,"S2",6,1
"2011",141,20,73,1.08,1,0.9179,2,1,"S2",6,1
"2012",142,20,62,3.8,1,1.3232,1,2,"S2",6,1
"2013",143,20,14,1.47,1,1.5144,2,1,"S2",6,1
"2014",144,20,23,1.9,1,1.4013,2,1,"S2",6,1
"2015",145,20,118,3.8,0,1.6636,2,2,"S2",6,1
"2016",146,20,14,2.8,1,1.5229,1,2,"S2",6,1
"2017",147,20,62,2.5,1,1.3285,2,1,"S2",6,1
"2018",148,20,6,1.2,1,1.4966,2,1,"S2",6,1
"2019",149,20,14,1.9,1,0.8924,1,2,"S2",6,1
"2020",150,20,23,2.8,1,0.8365,2,1,"S2",6,1
"2021",151,20,4,3.1,1,0.8357,2,1,"S2",6,1
"2022",152,20,23,2.3,1,1.1726,1,2,"S2",6,1
"2023",153,20,118,2.07,1,0.9984,1,2,"S2",6,1
"2024",154,20,118,1.83,0,1.5781,2,2,"S2",6,1
"2025",155,20,4,1.085,1,1.6083,1,2,"S2",6,1
"2026",156,20,118,1.7,1,1.8528,1,2,"S2",6,1
"2027",157,20,23,1.02,0,1.6195,2,2,"S2",6,1
"2028",158,20,29,3.1,1,1.4432,1,2,"S2",6,1
"2029",159,20,23,1.08,1,0.9665,2,1,"S2",6,1
"2030",160,20,14,2.07,1,0.8143,2,1,"S2",6,1
"2031",161,20,2,1.83,1,1.1956,1,2,"S2",6,1
"2032",162,20,2,3.8,1,0.983,1,2,"S2",6,1
"2033",163,20,4,3.8,1,1.3022,1,2,"S2",6,1
"2034",164,20,62,2.3,1,0.9513,2,1,"S2",6,1
"2035",165,20,118,3.1,1,1.5062,1,2,"S2",6,1
"2036",166,20,23,1.47,1,1.826,2,1,"S2",6,1
"2037",167,20,50,2.07,1,1.2524,2,1,"S2",6,1
"2038",168,20,6,1.33,1,2.8318,1,2,"S2",6,1
"2039",169,20,6,3.8,1,0.7135,2,1,"S2",6,1
"2040",170,20,29,1.2,1,2.1569,2,1,"S2",6,1
"2041",1,20,3,2.55,0,4.3715,2,2,"S1",7,0
"2042",2,20,45,2.05,0,0.9329,2,2,"S1",7,0
"2043",3,20,7,2.85,0,0.7365,2,2,"S1",7,0
"2044",4,20,13,3.05,0,0.861,1,1,"S1",7,0
"2045",5,20,24,1.65,0,0.7256,2,2,"S1",7,0
"2046",6,20,122,1.05,0,0.6221,2,2,"S1",7,0
"2047",7,20,58,1.55,0,0.5359,2,2,"S1",7,0
"2048",8,20,3,1.45,0,0.5018,1,1,"S1",7,0
"2049",9,20,45,3.45,0,0.7682,1,1,"S1",7,0
"2050",10,20,45,1.05,0,0.6994,1,1,"S1",7,0
"2051",11,20,32,2.05,0,0.5241,1,1,"S1",7,0
"2052",12,20,32,3.45,0,0.3768,2,2,"S1",7,0
"2053",13,20,75,2.85,0,0.4537,1,1,"S1",7,0
"2054",14,20,7,1.25,0,0.474,1,1,"S1",7,0
"2055",15,20,32,1.65,0,0.4485,1,1,"S1",7,0
"2056",16,20,32,1.55,0,0.6249,2,2,"S1",7,0
"2057",17,20,24,1.05,0,0.4482,1,1,"S1",7,0
"2058",18,20,1,1.05,0,0.3982,1,1,"S1",7,0
"2059",19,20,32,1.45,0,0.4942,2,2,"S1",7,0
"2060",20,20,3,2.25,0,0.4218,2,2,"S1",7,0
"2061",21,20,122,1.25,0,0.6623,2,2,"S1",7,0
"2062",22,20,32,1.25,0,0.6387,2,2,"S1",7,0
"2063",23,20,1,2.85,1,1.6061,1,2,"S1",7,0
"2064",24,20,32,2.25,0,0.8196,2,2,"S1",7,0
"2065",25,20,1,1.9,1,1.3949,2,1,"S1",7,0
"2066",26,20,58,2.05,0,0.7715,1,1,"S1",7,0
"2067",27,20,24,1.35,0,0.7389,2,2,"S1",7,0
"2068",28,20,45,1.9,0,0.5422,1,1,"S1",7,0
"2069",29,20,58,1.35,0,0.5,2,2,"S1",7,0
"2070",30,20,1,1.25,0,1.151,2,2,"S1",7,0
"2071",31,20,122,1.85,0,0.5009,2,2,"S1",7,0
"2072",32,20,58,2.85,0,0.549,1,1,"S1",7,0
"2073",33,20,7,1.45,0,0.7915,2,2,"S1",7,0
"2074",34,20,24,2.25,0,0.546,1,1,"S1",7,0
"2075",35,20,75,1.05,0,0.6605,2,2,"S1",7,0
"2076",36,20,3,1.65,0,0.6353,2,2,"S1",7,0
"2077",37,20,3,2.85,0,0.4422,1,1,"S1",7,0
"2078",38,20,3,2.05,0,0.5778,1,1,"S1",7,0
"2079",39,20,13,1.9,0,0.4721,2,2,"S1",7,0
"2080",40,20,1,1.45,0,1.8206,2,2,"S1",7,0
"2081",41,20,3,1.25,0,1.0101,1,1,"S1",7,0
"2082",42,20,3,1.85,0,0.6859,1,1,"S1",7,0
"2083",43,20,3,1.55,0,0.5252,2,2,"S1",7,0
"2084",44,20,58,1.15,0,0.376,1,1,"S1",7,0
"2085",45,20,122,2.85,0,0.3968,1,1,"S1",7,0
"2086",46,20,122,1.65,0,0.767,2,2,"S1",7,0
"2087",47,20,3,3.45,0,0.5106,1,1,"S1",7,0
"2088",48,20,58,3.05,0,0.6295,1,1,"S1",7,0
"2089",49,20,13,3.45,0,0.6827,2,2,"S1",7,0
"2090",50,20,13,1.05,0,0.4868,2,2,"S1",7,0
"2091",51,20,45,2.25,0,0.7495,1,1,"S1",7,0
"2092",52,20,32,1.9,0,0.5105,1,1,"S1",7,0
"2093",53,20,75,1.055,0,0.4943,2,2,"S1",7,0
"2094",54,20,75,1.15,0,0.5527,2,2,"S1",7,0
"2095",55,20,58,2.25,0,0.736,2,2,"S1",7,0
"2096",56,20,45,3.05,0,0.496,1,1,"S1",7,0
"2097",57,20,75,2.55,0,0.6821,1,1,"S1",7,0
"2098",58,20,45,1.65,0,0.5172,2,2,"S1",7,0
"2099",59,20,1,2.55,1,1.2612,2,1,"S1",7,0
"2100",60,20,3,1.35,0,0.8779,2,2,"S1",7,0
"2101",61,20,122,2.05,0,0.6431,1,1,"S1",7,0
"2102",62,20,3,3.85,1,1.4516,1,2,"S1",7,0
"2103",63,20,75,2.25,0,1.0041,2,2,"S1",7,0
"2104",64,20,13,1.25,0,0.6154,2,2,"S1",7,0
"2105",65,20,122,1.55,0,0.7298,1,1,"S1",7,0
"2106",66,20,45,3.85,0,0.5033,1,1,"S1",7,0
"2107",67,20,58,1.45,0,0.5222,1,1,"S1",7,0
"2108",68,20,13,2.05,0,0.8381,2,2,"S1",7,0
"2109",69,20,7,1.15,0,0.5032,1,1,"S1",7,0
"2110",70,20,122,1.45,0,0.5387,1,1,"S1",7,0
"2111",71,20,13,1.35,0,0.47,2,2,"S1",7,0
"2112",72,20,122,3.05,0,0.7676,2,2,"S1",7,0
"2113",73,20,122,2.25,0,0.4619,2,2,"S1",7,0
"2114",74,20,32,3.05,0,0.5644,2,2,"S1",7,0
"2115",75,20,32,1.05,0,0.7501,1,1,"S1",7,0
"2116",76,20,13,3.85,0,0.4721,2,2,"S1",7,0
"2117",77,20,13,2.25,0,0.5368,2,2,"S1",7,0
"2118",78,20,24,2.05,0,0.9183,2,2,"S1",7,0
"2119",79,20,1,1.65,1,1.8902,2,1,"S1",7,0
"2120",80,20,1,1.15,0,0.9904,2,2,"S1",7,0
"2121",81,20,1,1.55,1,1.2911,2,1,"S1",7,0
"2122",82,20,24,3.85,0,0.5539,1,1,"S1",7,0
"2123",83,20,3,1.05,0,0.8348,1,1,"S1",7,0
"2124",84,20,1,2.05,1,0.944,1,2,"S1",7,0
"2125",85,20,32,3.85,0,0.4584,2,2,"S1",7,0
"2126",86,20,13,1.65,0,0.4669,2,2,"S1",7,0
"2127",87,20,24,1.055,0,0.9653,1,1,"S1",7,0
"2128",88,20,32,1.35,0,0.5167,2,2,"S1",7,0
"2129",89,20,75,3.45,0,0.5778,2,2,"S1",7,0
"2130",90,20,122,2.55,0,0.7247,1,1,"S1",7,0
"2131",91,20,7,1.55,0,0.8679,1,1,"S1",7,0
"2132",92,20,122,3.45,0,0.7315,2,2,"S1",7,0
"2133",93,20,7,1.65,0,0.4666,2,2,"S1",7,0
"2134",94,20,75,3.85,0,0.4539,1,1,"S1",7,0
"2135",95,20,32,2.85,0,0.4259,1,1,"S1",7,0
"2136",96,20,7,2.05,0,0.5078,1,1,"S1",7,0
"2137",97,20,7,1.05,0,0.6069,1,1,"S1",7,0
"2138",98,20,58,3.85,0,0.441,1,1,"S1",7,0
"2139",99,20,32,2.55,0,0.4515,2,2,"S1",7,0
"2140",100,20,24,2.55,0,0.4116,1,1,"S1",7,0
"2141",101,20,13,2.55,0,0.5557,1,1,"S1",7,0
"2142",102,20,75,1.35,0,0.3914,1,1,"S1",7,0
"2143",103,20,75,3.05,0,0.3884,1,1,"S1",7,0
"2144",104,20,24,2.85,0,0.4077,2,2,"S1",7,0
"2145",105,20,45,2.55,0,0.464,2,2,"S1",7,0
"2146",106,20,7,1.35,0,0.3665,2,2,"S1",7,0
"2147",107,20,7,3.85,0,0.414,1,1,"S1",7,0
"2148",108,20,24,1.45,0,0.6063,2,2,"S1",7,0
"2149",109,20,122,3.85,0,0.3573,2,2,"S1",7,0
"2150",110,20,24,1.9,0,0.4293,2,2,"S1",7,0
"2151",111,20,45,1.35,0,0.4359,1,1,"S1",7,0
"2152",112,20,13,1.45,0,0.4599,2,2,"S1",7,0
"2153",113,20,58,1.25,0,0.449,2,2,"S1",7,0
"2154",114,20,32,1.85,0,0.4501,1,1,"S1",7,0
"2155",115,20,24,1.25,0,0.6647,2,2,"S1",7,0
"2156",116,20,7,1.85,0,0.9491,1,1,"S1",7,0
"2157",117,20,58,1.05,0,0.6054,1,1,"S1",7,0
"2158",118,20,7,3.05,0,0.6084,2,2,"S1",7,0
"2159",119,20,58,1.65,0,0.5887,1,1,"S1",7,0
"2160",120,20,58,1.9,0,0.4471,2,2,"S1",7,0
"2161",121,20,13,1.055,0,0.5859,2,2,"S1",7,0
"2162",122,20,3,1.055,0,0.5352,2,2,"S1",7,0
"2163",123,20,45,1.45,0,0.3961,2,2,"S1",7,0
"2164",124,20,1,2.25,1,0.8419,2,1,"S1",7,0
"2165",125,20,7,3.45,0,0.8533,1,1,"S1",7,0
"2166",126,20,75,1.25,0,1.3186,2,2,"S1",7,0
"2167",127,20,24,3.45,0,0.4486,2,2,"S1",7,0
"2168",128,20,45,1.55,0,0.3865,1,1,"S1",7,0
"2169",129,20,7,1.9,0,0.5076,1,1,"S1",7,0
"2170",130,20,32,1.055,0,0.4148,2,2,"S1",7,0
"2171",131,20,3,3.05,0,0.35,1,1,"S1",7,0
"2172",132,20,122,1.9,0,1.1056,1,1,"S1",7,0
"2173",133,20,24,1.85,0,0.6376,2,2,"S1",7,0
"2174",134,20,45,1.055,0,0.62,2,2,"S1",7,0
"2175",135,20,1,1.35,0,1.1446,2,2,"S1",7,0
"2176",136,20,7,2.55,0,0.9187,1,1,"S1",7,0
"2177",137,20,3,1.9,1,0.8545,2,1,"S1",7,0
"2178",138,20,45,1.15,0,0.7912,1,1,"S1",7,0
"2179",139,20,75,1.9,0,0.6611,1,1,"S1",7,0
"2180",140,20,13,1.85,0,0.5797,1,1,"S1",7,0
"2181",141,20,7,1.055,0,0.5322,2,2,"S1",7,0
"2182",142,20,1,1.055,0,0.8041,1,1,"S1",7,0
"2183",143,20,45,1.25,0,0.698,1,1,"S1",7,0
"2184",144,20,13,1.15,0,0.5711,1,1,"S1",7,0
"2185",145,20,58,3.45,0,0.5506,1,1,"S1",7,0
"2186",146,20,1,3.05,1,0.9578,1,2,"S1",7,0
"2187",147,20,75,1.85,0,0.6411,1,1,"S1",7,0
"2188",148,20,3,1.15,0,0.6158,1,1,"S1",7,0
"2189",149,20,122,1.15,0,0.4615,1,1,"S1",7,0
"2190",150,20,1,3.45,1,0.7448,2,1,"S1",7,0
"2191",151,20,24,1.15,0,0.4381,1,1,"S1",7,0
"2192",152,20,13,1.55,0,0.5291,1,1,"S1",7,0
"2193",153,20,1,3.85,1,0.7676,2,1,"S1",7,0
"2194",154,20,32,1.15,0,0.5347,2,2,"S1",7,0
"2195",155,20,58,2.55,0,0.7333,1,1,"S1",7,0
"2196",156,20,122,1.055,0,0.5316,2,2,"S1",7,0
"2197",157,20,75,1.45,0,0.5549,2,2,"S1",7,0
"2198",158,20,45,2.85,0,0.5299,1,1,"S1",7,0
"2199",159,20,75,2.05,0,0.4439,1,1,"S1",7,0
"2200",160,20,24,1.55,0,0.7039,2,2,"S1",7,0
"2201",161,20,45,1.85,0,0.4459,2,2,"S1",7,0
"2202",162,20,75,1.65,0,1.5327,2,2,"S1",7,0
"2203",163,20,1,1.85,1,1.074,2,1,"S1",7,0
"2204",164,20,24,3.05,0,0.7154,2,2,"S1",7,0
"2205",165,20,13,2.85,0,0.5321,2,2,"S1",7,0
"2206",166,20,58,1.055,0,0.5523,2,2,"S1",7,0
"2207",167,20,75,1.55,0,0.6955,2,2,"S1",7,0
"2208",168,20,7,2.25,0,0.551,1,1,"S1",7,0
"2209",169,20,58,1.85,0,0.8007,1,1,"S1",7,0
"2210",170,20,122,1.35,0,1.0272,2,2,"S1",7,0
"2211",1,20,2,2.3,0,2.6212,1,1,"S2",7,1
"2212",2,20,73,2.8,0,3.4924,2,2,"S2",7,1
"2213",3,20,23,1.02,0,2.0494,1,1,"S2",7,1
"2214",4,20,14,1.9,0,2.4018,2,2,"S2",7,1
"2215",5,20,23,1.9,0,1.222,2,2,"S2",7,1
"2216",6,20,4,1.085,0,1.4651,2,2,"S2",7,1
"2217",7,20,2,2.07,0,3.0366,2,2,"S2",7,1
"2218",8,20,29,1.7,0,1.2189,1,1,"S2",7,1
"2219",9,20,4,1.025,0,1.11,1,1,"S2",7,1
"2220",10,20,23,1.83,0,0.8842,2,2,"S2",7,1
"2221",11,20,50,2.07,0,0.816,1,1,"S2",7,1
"2222",12,20,14,1.2,0,1.2874,1,1,"S2",7,1
"2223",13,20,29,1.2,0,0.7617,1,1,"S2",7,1
"2224",14,20,73,2.3,0,0.6796,1,1,"S2",7,1
"2225",15,20,62,2.5,0,1.094,2,2,"S2",7,1
"2226",16,20,14,3.5,0,2.2306,1,1,"S2",7,1
"2227",17,20,29,1.5,0,0.9569,1,1,"S2",7,1
"2228",18,20,118,3.1,0,1.1113,1,1,"S2",7,1
"2229",19,20,62,1.2,0,0.8143,2,2,"S2",7,1
"2230",20,20,6,2.07,0,0.8685,1,1,"S2",7,1
"2231",21,20,62,2.07,0,0.925,2,2,"S2",7,1
"2232",22,20,118,1.2,0,0.8128,1,1,"S2",7,1
"2233",23,20,14,3.8,0,0.6122,2,2,"S2",7,1
"2234",24,20,29,1.83,0,0.6777,2,2,"S2",7,1
"2235",25,20,29,3.1,0,0.5409,2,2,"S2",7,1
"2236",26,20,14,1.33,0,1.1737,2,2,"S2",7,1
"2237",27,20,6,3.1,0,0.7458,1,1,"S2",7,1
"2238",28,20,23,1.2,0,0.7386,1,1,"S2",7,1
"2239",29,20,6,1.33,0,0.6845,2,2,"S2",7,1
"2240",30,20,4,1.2,0,0.5538,2,2,"S2",7,1
"2241",31,20,29,3.5,0,0.7917,1,1,"S2",7,1
"2242",32,20,73,1.9,0,0.4678,2,2,"S2",7,1
"2243",33,20,50,2.8,0,0.7379,2,2,"S2",7,1
"2244",34,20,118,1.33,0,0.6558,1,1,"S2",7,1
"2245",35,20,4,3.8,0,1.1074,2,2,"S2",7,1
"2246",36,20,73,3.5,0,1.6634,2,2,"S2",7,1
"2247",37,20,2,1.7,0,1.5053,1,1,"S2",7,1
"2248",38,20,50,2.5,0,0.8297,1,1,"S2",7,1
"2249",39,20,29,1.2,0,0.6754,2,2,"S2",7,1
"2250",40,20,118,1.83,0,0.8175,1,1,"S2",7,1
"2251",41,20,50,3.1,0,0.5598,1,1,"S2",7,1
"2252",42,20,23,2.8,0,0.6463,1,1,"S2",7,1
"2253",43,20,62,3.1,0,0.6143,1,1,"S2",7,1
"2254",44,20,118,2.5,0,0.7959,2,2,"S2",7,1
"2255",45,20,62,2.3,0,0.592,1,1,"S2",7,1
"2256",46,20,4,1.5,0,0.7752,1,1,"S2",7,1
"2257",47,20,73,2.07,0,0.7051,1,1,"S2",7,1
"2258",48,20,50,1.08,0,1.1425,2,2,"S2",7,1
"2259",49,20,118,3.8,0,0.7304,1,1,"S2",7,1
"2260",50,20,73,3.1,0,0.5547,1,1,"S2",7,1
"2261",51,20,6,2.5,0,0.6947,2,2,"S2",7,1
"2262",52,20,50,1.47,0,0.7035,1,1,"S2",7,1
"2263",53,20,14,1.7,0,0.7262,2,2,"S2",7,1
"2264",54,20,6,3.8,0,0.5078,2,2,"S2",7,1
"2265",55,20,6,1.2,0,0.762,2,2,"S2",7,1
"2266",56,20,6,1.47,0,0.6877,1,1,"S2",7,1
"2267",57,20,118,2.3,0,0.4891,2,2,"S2",7,1
"2268",58,20,14,1.5,0,0.5677,1,1,"S2",7,1
"2269",59,20,4,1.83,0,0.4962,2,2,"S2",7,1
"2270",60,20,4,3.5,0,0.4509,1,1,"S2",7,1
"2271",61,20,6,2.8,0,0.4822,2,2,"S2",7,1
"2272",62,20,118,1.47,0,0.7018,2,2,"S2",7,1
"2273",63,20,118,1.2,0,0.6108,1,1,"S2",7,1
"2274",64,20,2,1.2,0,0.9737,1,1,"S2",7,1
"2275",65,20,23,1.33,0,0.5525,1,1,"S2",7,1
"2276",66,20,62,1.025,0,0.4858,2,2,"S2",7,1
"2277",67,20,23,2.5,0,0.6065,2,2,"S2",7,1
"2278",68,20,2,2.8,0,0.4972,1,1,"S2",7,1
"2279",69,20,62,1.085,0,0.4604,1,1,"S2",7,1
"2280",70,20,50,1.02,0,1.1016,2,2,"S2",7,1
"2281",71,20,4,1.9,0,0.8902,1,1,"S2",7,1
"2282",72,20,6,1.02,0,0.7384,2,2,"S2",7,1
"2283",73,20,23,1.2,0,0.6917,1,1,"S2",7,1
"2284",74,20,62,1.33,0,0.6913,2,2,"S2",7,1
"2285",75,20,6,2.3,0,0.6012,1,1,"S2",7,1
"2286",76,20,4,1.33,0,0.4809,2,2,"S2",7,1
"2287",77,20,2,1.02,0,0.5767,1,1,"S2",7,1
"2288",78,20,29,2.8,0,0.5064,1,1,"S2",7,1
"2289",79,20,4,2.8,0,0.6609,2,2,"S2",7,1
"2290",80,20,73,1.2,0,0.6232,1,1,"S2",7,1
"2291",81,20,50,1.2,0,0.476,1,1,"S2",7,1
"2292",82,20,14,1.2,0,0.6629,1,1,"S2",7,1
"2293",83,20,6,1.08,0,0.6925,2,2,"S2",7,1
"2294",84,20,23,1.5,0,0.9936,1,1,"S2",7,1
"2295",85,20,73,1.83,0,0.5757,1,1,"S2",7,1
"2296",86,20,118,1.025,0,0.7822,2,2,"S2",7,1
"2297",87,20,118,3.5,0,0.8707,1,1,"S2",7,1
"2298",88,20,118,2.07,0,0.4924,2,2,"S2",7,1
"2299",89,20,29,1.47,0,0.5458,2,2,"S2",7,1
"2300",90,20,50,2.3,0,0.7757,2,2,"S2",7,1
"2301",91,20,118,2.8,0,0.5081,1,1,"S2",7,1
"2302",92,20,29,2.3,0,0.5633,1,1,"S2",7,1
"2303",93,20,2,2.5,0,0.5091,1,1,"S2",7,1
"2304",94,20,118,1.7,0,0.8022,2,2,"S2",7,1
"2305",95,20,4,2.07,0,1.14,1,1,"S2",7,1
"2306",96,20,2,1.5,0,1.1811,2,2,"S2",7,1
"2307",97,20,73,1.02,0,0.6139,2,2,"S2",7,1
"2308",98,20,73,3.8,0,0.6949,2,2,"S2",7,1
"2309",99,20,118,1.085,0,1.0358,1,1,"S2",7,1
"2310",100,20,29,1.025,0,0.6117,1,1,"S2",7,1
"2311",101,20,2,1.33,0,0.7236,2,2,"S2",7,1
"2312",102,20,62,1.9,0,0.687,1,1,"S2",7,1
"2313",103,20,6,1.2,0,0.8147,2,2,"S2",7,1
"2314",104,20,50,3.5,0,0.4615,1,1,"S2",7,1
"2315",105,20,14,2.5,0,0.6707,1,1,"S2",7,1
"2316",106,20,2,1.08,0,0.5864,1,1,"S2",7,1
"2317",107,20,73,1.33,0,0.4935,2,2,"S2",7,1
"2318",108,20,50,1.33,0,0.711,1,1,"S2",7,1
"2319",109,20,50,1.9,0,0.4521,2,2,"S2",7,1
"2320",110,20,29,1.085,0,0.4662,1,1,"S2",7,1
"2321",111,20,118,1.5,0,0.6309,1,1,"S2",7,1
"2322",112,20,4,2.5,0,0.772,1,1,"S2",7,1
"2323",113,20,29,1.33,0,0.5927,1,1,"S2",7,1
"2324",114,20,23,1.08,0,0.5989,2,2,"S2",7,1
"2325",115,20,4,1.47,0,0.5047,2,2,"S2",7,1
"2326",116,20,29,2.07,0,0.5259,2,2,"S2",7,1
"2327",117,20,6,1.9,0,0.3904,2,2,"S2",7,1
"2328",118,20,23,1.47,0,0.4602,2,2,"S2",7,1
"2329",119,20,23,2.07,0,0.5567,1,1,"S2",7,1
"2330",120,20,2,1.2,0,0.809,1,1,"S2",7,1
"2331",121,20,4,2.3,0,0.5012,2,2,"S2",7,1
"2332",122,20,14,1.085,0,0.583,1,1,"S2",7,1
"2333",123,20,23,2.3,0,0.6193,2,2,"S2",7,1
"2334",124,20,73,1.47,0,0.5367,2,2,"S2",7,1
"2335",125,20,62,1.5,0,0.5868,2,2,"S2",7,1
"2336",126,20,29,2.5,0,0.4651,2,2,"S2",7,1
"2337",127,20,73,1.5,0,0.8085,1,1,"S2",7,1
"2338",128,20,73,1.7,0,0.4526,2,2,"S2",7,1
"2339",129,20,62,3.8,0,0.6646,1,1,"S2",7,1
"2340",130,20,50,1.2,0,0.6028,1,1,"S2",7,1
"2341",131,20,73,1.08,0,0.5837,2,2,"S2",7,1
"2342",132,20,23,3.8,0,0.5761,2,2,"S2",7,1
"2343",133,20,2,1.47,0,0.4686,2,2,"S2",7,1
"2344",134,20,14,1.47,0,0.9325,1,1,"S2",7,1
"2345",135,20,23,1.7,0,0.5958,1,1,"S2",7,1
"2346",136,20,50,1.5,0,0.3874,1,1,"S2",7,1
"2347",137,20,2,1.9,0,0.7071,2,2,"S2",7,1
"2348",138,20,2,3.1,1,2.1951,2,1,"S2",7,1
"2349",139,20,2,3.5,1,1.0239,2,1,"S2",7,1
"2350",140,20,4,1.2,0,1.1441,2,2,"S2",7,1
"2351",141,20,23,3.5,0,0.954,1,1,"S2",7,1
"2352",142,20,14,1.025,0,0.6791,2,2,"S2",7,1
"2353",143,20,50,3.8,0,0.503,1,1,"S2",7,1
"2354",144,20,6,3.5,0,0.4805,1,1,"S2",7,1
"2355",145,20,6,1.7,0,1.0312,2,2,"S2",7,1
"2356",146,20,62,2.8,0,0.8507,2,2,"S2",7,1
"2357",147,20,23,3.1,0,0.6578,1,1,"S2",7,1
"2358",148,20,4,3.1,0,2.477,2,2,"S2",7,1
"2359",149,20,62,1.83,0,0.5759,2,2,"S2",7,1
"2360",150,20,73,1.2,0,0.6182,2,2,"S2",7,1
"2361",151,20,50,1.83,0,0.8019,2,2,"S2",7,1
"2362",152,20,6,1.83,0,0.7668,1,1,"S2",7,1
